participant,block,trial,screenID,condition,stepID,position,initial_item,final_item,answer,acc,rt,updPos
2,1,1,memory,kr,1,0,럼,NA,NULL,NA,NA,NA
2,1,1,memory,kr,2,1,알,NA,NULL,NA,NA,NA
2,1,1,memory,kr,3,2,본,NA,NULL,NA,NA,NA
2,1,1,memory,kr,4,3,료,NA,NULL,NA,NA,NA
2,1,1,memory,kr,5,4,워,NA,NULL,NA,NA,NA
2,1,1,memory,kr,6,5,디,NA,NULL,NA,NA,NA
2,1,1,updating,kr,1,4,워,르,NULL,NA,NA,yes
2,1,1,updating,kr,2,5,디,탄,NULL,NA,NA,yes
2,1,1,updating,kr,3,0,럼,여,NULL,NA,NA,yes
2,1,1,retrieval,kr,1,2,본,본,안,FALSE,7102,no
2,1,1,retrieval,kr,2,4,워,르,탄,FALSE,1175,yes
2,1,1,retrieval,kr,3,1,알,알,NULL,FALSE,NA,no
2,1,1,retrieval,kr,4,0,럼,여,알,FALSE,2614,yes
2,1,1,retrieval,kr,5,3,료,료,르,FALSE,4995,no
2,1,1,retrieval,kr,6,5,디,탄,안,FALSE,6720,yes
2,1,1,debrief,kr,NA,NA,NA,NA,NULL,NA,NA,NA
2,1,2,memory,kr,1,0,중,NA,NULL,NA,NA,NA
2,1,2,memory,kr,2,1,경,NA,NULL,NA,NA,NA
2,1,2,memory,kr,3,2,소,NA,NULL,NA,NA,NA
2,1,2,memory,kr,4,3,갈,NA,NULL,NA,NA,NA
2,1,2,memory,kr,5,4,사,NA,NULL,NA,NA,NA
2,1,2,memory,kr,6,5,태,NA,NULL,NA,NA,NA
2,1,2,updating,kr,1,2,소,박,NULL,NA,NA,yes
2,1,2,updating,kr,2,4,사,구,NULL,NA,NA,yes
2,1,2,updating,kr,3,1,경,철,NULL,NA,NA,yes
2,1,2,retrieval,kr,1,4,사,구,구,TRUE,3925.0000000001164,yes
2,1,2,retrieval,kr,2,3,갈,갈,소,FALSE,1128,no
2,1,2,retrieval,kr,3,0,중,중,경,FALSE,7357,no
2,1,2,retrieval,kr,4,5,태,태,흔,FALSE,8140,no
2,1,2,retrieval,kr,5,2,소,박,경,FALSE,10444,yes
2,1,2,retrieval,kr,6,1,경,철,태,FALSE,1211,yes
2,1,2,debrief,kr,NA,NA,NA,NA,NULL,NA,NA,NA
2,1,3,memory,kr,1,0,예,NA,NULL,NA,NA,NA
2,1,3,memory,kr,2,1,도,NA,NULL,NA,NA,NA
2,1,3,memory,kr,3,2,국,NA,NULL,NA,NA,NA
2,1,3,memory,kr,4,3,른,NA,NULL,NA,NA,NA
2,1,3,memory,kr,5,4,선,NA,NULL,NA,NA,NA
2,1,3,memory,kr,6,5,맑,NA,NULL,NA,NA,NA
2,1,3,updating,kr,1,3,른,참,NULL,NA,NA,yes
2,1,3,updating,kr,2,2,국,급,NULL,NA,NA,yes
2,1,3,updating,kr,3,1,도,준,NULL,NA,NA,yes
2,1,3,retrieval,kr,1,5,맑,맑,맑,TRUE,4468.999999999884,no
2,1,3,retrieval,kr,2,1,도,준,준,TRUE,11284,yes
2,1,3,retrieval,kr,3,0,예,예,예,TRUE,3479,no
2,1,3,retrieval,kr,4,4,선,선,억,FALSE,7790.000000000116,no
2,1,3,retrieval,kr,5,3,른,참,쟁,FALSE,2309,yes
2,1,3,retrieval,kr,6,2,국,급,급,TRUE,957,yes
2,1,3,debrief,kr,NA,NA,NA,NA,NULL,NA,NA,NA
2,1,4,memory,kr,1,0,섬,NA,NULL,NA,NA,NA
2,1,4,memory,kr,2,1,피,NA,NULL,NA,NA,NA
2,1,4,memory,kr,3,2,독,NA,NULL,NA,NA,NA
2,1,4,memory,kr,4,3,느,NA,NULL,NA,NA,NA
2,1,4,memory,kr,5,4,반,NA,NULL,NA,NA,NA
2,1,4,memory,kr,6,5,견,NA,NULL,NA,NA,NA
2,1,4,updating,kr,1,4,반,말,NULL,NA,NA,yes
2,1,4,updating,kr,2,0,섬,속,NULL,NA,NA,yes
2,1,4,updating,kr,3,1,피,넘,NULL,NA,NA,yes
2,1,4,retrieval,kr,1,1,피,넘,넘,TRUE,3859,yes
2,1,4,retrieval,kr,2,5,견,견,섬,FALSE,9375,no
2,1,4,retrieval,kr,3,4,반,말,말,TRUE,4851,yes
2,1,4,retrieval,kr,4,2,독,독,독,TRUE,9741,no
2,1,4,retrieval,kr,5,0,섬,속,섬,FALSE,5961,yes
2,1,4,retrieval,kr,6,3,느,느,느,TRUE,2652,no
2,1,4,debrief,kr,NA,NA,NA,NA,NULL,NA,NA,NA
2,1,5,memory,kr,1,0,혈,NA,NULL,NA,NA,NA
2,1,5,memory,kr,2,1,규,NA,NULL,NA,NA,NA
2,1,5,memory,kr,3,2,런,NA,NULL,NA,NA,NA
2,1,5,memory,kr,4,3,죄,NA,NULL,NA,NA,NA
2,1,5,memory,kr,5,4,떠,NA,NULL,NA,NA,NA
2,1,5,memory,kr,6,5,낼,NA,NULL,NA,NA,NA
2,1,5,updating,kr,1,5,낼,족,NULL,NA,NA,yes
2,1,5,updating,kr,2,3,죄,할,NULL,NA,NA,yes
2,1,5,updating,kr,3,4,떠,막,NULL,NA,NA,yes
2,1,5,retrieval,kr,1,2,런,런,런,TRUE,7715,no
2,1,5,retrieval,kr,2,0,혈,혈,할,FALSE,4782.999999999884,no
2,1,5,retrieval,kr,3,3,죄,할,막,FALSE,5432,yes
2,1,5,retrieval,kr,4,1,규,규,규,TRUE,1541,no
2,1,5,retrieval,kr,5,4,떠,막,혈,FALSE,2799.9999999998836,yes
2,1,5,retrieval,kr,6,5,낼,족,막,FALSE,13473,yes
2,1,5,debrief,kr,NA,NA,NA,NA,NULL,NA,NA,NA
2,1,6,memory,kr,1,0,륙,NA,NULL,NA,NA,NA
2,1,6,memory,kr,2,1,호,NA,NULL,NA,NA,NA
2,1,6,memory,kr,3,2,극,NA,NULL,NA,NA,NA
2,1,6,memory,kr,4,3,운,NA,NULL,NA,NA,NA
2,1,6,memory,kr,5,4,라,NA,NULL,NA,NA,NA
2,1,6,memory,kr,6,5,역,NA,NULL,NA,NA,NA
2,1,6,updating,kr,1,0,륙,에,NULL,NA,NA,yes
2,1,6,updating,kr,2,5,역,님,NULL,NA,NA,yes
2,1,6,updating,kr,3,3,운,꾸,NULL,NA,NA,yes
2,1,6,retrieval,kr,1,3,운,꾸,꾸,TRUE,2613,yes
2,1,6,retrieval,kr,2,5,역,님,에,FALSE,8578.999999999884,yes
2,1,6,retrieval,kr,3,2,극,극,자,FALSE,14242,no
2,1,6,retrieval,kr,4,0,륙,에,님,FALSE,2534,yes
2,1,6,retrieval,kr,5,4,라,라,극,FALSE,8793.999999999884,no
2,1,6,retrieval,kr,6,1,호,호,륙,FALSE,1369,no
2,1,6,debrief,kr,NA,NA,NA,NA,NULL,NA,NA,NA
2,1,7,memory,kr,1,0,히,NA,NULL,NA,NA,NA
2,1,7,memory,kr,2,1,통,NA,NULL,NA,NA,NA
2,1,7,memory,kr,3,2,최,NA,NULL,NA,NA,NA
2,1,7,memory,kr,4,3,빅,NA,NULL,NA,NA,NA
2,1,7,memory,kr,5,4,합,NA,NULL,NA,NA,NA
2,1,7,memory,kr,6,5,점,NA,NULL,NA,NA,NA
2,1,7,updating,kr,1,3,빅,든,NULL,NA,NA,yes
2,1,7,updating,kr,2,0,히,재,NULL,NA,NA,yes
2,1,7,updating,kr,3,1,통,능,NULL,NA,NA,yes
2,1,7,retrieval,kr,1,4,합,합,재,FALSE,15473,no
2,1,7,retrieval,kr,2,2,최,최,최,TRUE,3692,no
2,1,7,retrieval,kr,3,5,점,점,점,TRUE,9407.999999999884,no
2,1,7,retrieval,kr,4,1,통,능,능,TRUE,4818.999999999884,yes
2,1,7,retrieval,kr,5,3,빅,든,빅,FALSE,8182,yes
2,1,7,retrieval,kr,6,0,히,재,히,FALSE,4131,yes
2,1,7,debrief,kr,NA,NA,NA,NA,NULL,NA,NA,NA
2,1,8,memory,kr,1,0,밝,NA,NULL,NA,NA,NA
2,1,8,memory,kr,2,1,표,NA,NULL,NA,NA,NA
2,1,8,memory,kr,3,2,고,NA,NULL,NA,NA,NA
2,1,8,memory,kr,4,3,세,NA,NULL,NA,NA,NA
2,1,8,memory,kr,5,4,유,NA,NULL,NA,NA,NA
2,1,8,memory,kr,6,5,뜨,NA,NULL,NA,NA,NA
2,1,8,updating,kr,1,1,표,렵,NULL,NA,NA,yes
2,1,8,updating,kr,2,2,고,종,NULL,NA,NA,yes
2,1,8,updating,kr,3,0,밝,후,NULL,NA,NA,yes
2,1,8,retrieval,kr,1,4,유,유,유,TRUE,2774,no
2,1,8,retrieval,kr,2,1,표,렵,종,FALSE,3394,yes
2,1,8,retrieval,kr,3,2,고,종,세,FALSE,10378.000000000116,yes
2,1,8,retrieval,kr,4,0,밝,후,후,TRUE,862,yes
2,1,8,retrieval,kr,5,5,뜨,뜨,분,FALSE,10808,no
2,1,8,retrieval,kr,6,3,세,세,뜨,FALSE,800.0000000002328,no
2,1,8,debrief,kr,NA,NA,NA,NA,NULL,NA,NA,NA
2,1,9,memory,kr,1,0,두,NA,NULL,NA,NA,NA
2,1,9,memory,kr,2,1,판,NA,NULL,NA,NA,NA
2,1,9,memory,kr,3,2,주,NA,NULL,NA,NA,NA
2,1,9,memory,kr,4,3,온,NA,NULL,NA,NA,NA
2,1,9,memory,kr,5,4,묻,NA,NULL,NA,NA,NA
2,1,9,memory,kr,6,5,달,NA,NULL,NA,NA,NA
2,1,9,updating,kr,1,1,판,높,NULL,NA,NA,yes
2,1,9,updating,kr,2,0,두,살,NULL,NA,NA,yes
2,1,9,updating,kr,3,5,달,혐,NULL,NA,NA,yes
2,1,9,retrieval,kr,1,2,주,주,온,FALSE,5367,no
2,1,9,retrieval,kr,2,1,판,높,민,FALSE,14977,yes
2,1,9,retrieval,kr,3,4,묻,묻,NULL,FALSE,NA,no
2,1,9,retrieval,kr,4,3,온,온,름,FALSE,2807,no
2,1,9,retrieval,kr,5,0,두,살,혐,FALSE,8102.999999999767,yes
2,1,9,retrieval,kr,6,5,달,혐,높,FALSE,2531,yes
2,1,9,debrief,kr,NA,NA,NA,NA,NULL,NA,NA,NA
2,1,10,memory,kr,1,0,시,NA,NULL,NA,NA,NA
2,1,10,memory,kr,2,1,풍,NA,NULL,NA,NA,NA
2,1,10,memory,kr,3,2,건,NA,NULL,NA,NA,NA
2,1,10,memory,kr,4,3,와,NA,NULL,NA,NA,NA
2,1,10,memory,kr,5,4,러,NA,NULL,NA,NA,NA
2,1,10,memory,kr,6,5,효,NA,NULL,NA,NA,NA
2,1,10,updating,kr,1,3,와,못,NULL,NA,NA,yes
2,1,10,updating,kr,2,4,러,격,NULL,NA,NA,yes
2,1,10,updating,kr,3,5,효,외,NULL,NA,NA,yes
2,1,10,retrieval,kr,1,5,효,외,와,FALSE,3216,yes
2,1,10,retrieval,kr,2,3,와,못,승,FALSE,4999,yes
2,1,10,retrieval,kr,3,0,시,시,시,TRUE,3632,no
2,1,10,retrieval,kr,4,1,풍,풍,풍,TRUE,3076,no
2,1,10,retrieval,kr,5,2,건,건,격,FALSE,3085,no
2,1,10,retrieval,kr,6,4,러,격,건,FALSE,11140,yes
2,1,10,debrief,kr,NA,NA,NA,NA,NULL,NA,NA,NA
2,1,11,memory,kr,1,0,년,NA,NULL,NA,NA,NA
2,1,11,memory,kr,2,1,완,NA,NULL,NA,NA,NA
2,1,11,memory,kr,3,2,오,NA,NULL,NA,NA,NA
2,1,11,memory,kr,4,3,양,NA,NULL,NA,NA,NA
2,1,11,memory,kr,5,4,병,NA,NULL,NA,NA,NA
2,1,11,memory,kr,6,5,뒤,NA,NULL,NA,NA,NA
2,1,11,updating,kr,1,3,양,란,NULL,NA,NA,yes
2,1,11,updating,kr,2,2,오,옮,NULL,NA,NA,yes
2,1,11,updating,kr,3,0,년,힘,NULL,NA,NA,yes
2,1,11,retrieval,kr,1,3,양,란,란,TRUE,12983,yes
2,1,11,retrieval,kr,2,5,뒤,뒤,힘,FALSE,6785,no
2,1,11,retrieval,kr,3,1,완,완,병,FALSE,9791,no
2,1,11,retrieval,kr,4,0,년,힘,란,FALSE,6435,yes
2,1,11,retrieval,kr,5,2,오,옮,옮,TRUE,1299,yes
2,1,11,retrieval,kr,6,4,병,병,겠,FALSE,7577.999999999767,no
2,1,11,debrief,kr,NA,NA,NA,NA,NULL,NA,NA,NA
2,1,12,memory,kr,1,0,패,NA,NULL,NA,NA,NA
2,1,12,memory,kr,2,1,택,NA,NULL,NA,NA,NA
2,1,12,memory,kr,3,2,암,NA,NULL,NA,NA,NA
2,1,12,memory,kr,4,3,증,NA,NULL,NA,NA,NA
2,1,12,memory,kr,5,4,바,NA,NULL,NA,NA,NA
2,1,12,memory,kr,6,5,학,NA,NULL,NA,NA,NA
2,1,12,updating,kr,1,3,증,율,NULL,NA,NA,yes
2,1,12,updating,kr,2,0,패,났,NULL,NA,NA,yes
2,1,12,updating,kr,3,1,택,리,NULL,NA,NA,yes
2,1,12,retrieval,kr,1,2,암,암,암,TRUE,15699,no
2,1,12,retrieval,kr,2,0,패,났,났,TRUE,4800,yes
2,1,12,retrieval,kr,3,3,증,율,증,FALSE,8278,yes
2,1,12,retrieval,kr,4,1,택,리,리,TRUE,1538,yes
2,1,12,retrieval,kr,5,5,학,학,학,TRUE,5534,no
2,1,12,retrieval,kr,6,4,바,바,증,FALSE,1758,no
2,1,12,debrief,kr,NA,NA,NA,NA,NULL,NA,NA,NA
2,1,13,memory,kr,1,0,로,NA,NULL,NA,NA,NA
2,1,13,memory,kr,2,1,럽,NA,NULL,NA,NA,NA
2,1,13,memory,kr,3,2,않,NA,NULL,NA,NA,NA
2,1,13,memory,kr,4,3,위,NA,NULL,NA,NA,NA
2,1,13,memory,kr,5,4,또,NA,NULL,NA,NA,NA
2,1,13,memory,kr,6,5,측,NA,NULL,NA,NA,NA
2,1,13,updating,kr,1,4,또,관,NULL,NA,NA,yes
2,1,13,updating,kr,2,2,않,육,NULL,NA,NA,yes
2,1,13,updating,kr,3,5,측,칙,NULL,NA,NA,yes
2,1,13,retrieval,kr,1,3,위,위,성,FALSE,5634,no
2,1,13,retrieval,kr,2,4,또,관,또,FALSE,7721,yes
2,1,13,retrieval,kr,3,2,않,육,잇,FALSE,6532,yes
2,1,13,retrieval,kr,4,0,로,로,육,FALSE,4984,no
2,1,13,retrieval,kr,5,5,측,칙,측,FALSE,2299,yes
2,1,13,retrieval,kr,6,1,럽,럽,않,FALSE,3207,no
2,1,13,debrief,kr,NA,NA,NA,NA,NULL,NA,NA,NA
2,1,14,memory,kr,1,0,튜,NA,NULL,NA,NA,NA
2,1,14,memory,kr,2,1,음,NA,NULL,NA,NA,NA
2,1,14,memory,kr,3,2,치,NA,NULL,NA,NA,NA
2,1,14,memory,kr,4,3,께,NA,NULL,NA,NA,NA
2,1,14,memory,kr,5,4,영,NA,NULL,NA,NA,NA
2,1,14,memory,kr,6,5,한,NA,NULL,NA,NA,NA
2,1,14,updating,kr,1,4,영,첫,NULL,NA,NA,yes
2,1,14,updating,kr,2,5,한,서,NULL,NA,NA,yes
2,1,14,updating,kr,3,1,음,차,NULL,NA,NA,yes
2,1,14,retrieval,kr,1,2,치,치,인,FALSE,16274,no
2,1,14,retrieval,kr,2,4,영,첫,영,FALSE,9581,yes
2,1,14,retrieval,kr,3,1,음,차,치,FALSE,11715,yes
2,1,14,retrieval,kr,4,3,께,께,께,TRUE,1717,no
2,1,14,retrieval,kr,5,0,튜,튜,튜,TRUE,7471.999999999767,no
2,1,14,retrieval,kr,6,5,한,서,한,FALSE,1249,yes
2,1,14,debrief,kr,NA,NA,NA,NA,NULL,NA,NA,NA
2,1,15,memory,kr,1,0,책,NA,NULL,NA,NA,NA
2,1,15,memory,kr,2,1,각,NA,NULL,NA,NA,NA
2,1,15,memory,kr,3,2,것,NA,NULL,NA,NA,NA
2,1,15,memory,kr,4,3,추,NA,NULL,NA,NA,NA
2,1,15,memory,kr,5,4,했,NA,NULL,NA,NA,NA
2,1,15,memory,kr,6,5,혔,NA,NULL,NA,NA,NA
2,1,15,updating,kr,1,2,것,렌,NULL,NA,NA,yes
2,1,15,updating,kr,2,1,각,동,NULL,NA,NA,yes
2,1,15,updating,kr,3,4,했,떡,NULL,NA,NA,yes
2,1,15,retrieval,kr,1,5,혔,혔,했,FALSE,11734,no
2,1,15,retrieval,kr,2,2,것,렌,떡,FALSE,11950.000000000233,yes
2,1,15,retrieval,kr,3,1,각,동,렌,FALSE,14799,yes
2,1,15,retrieval,kr,4,3,추,추,추,TRUE,1846,no
2,1,15,retrieval,kr,5,4,했,떡,내,FALSE,6923,yes
2,1,15,retrieval,kr,6,0,책,책,렌,FALSE,2678,no
2,1,15,debrief,kr,NA,NA,NA,NA,NULL,NA,NA,NA
2,1,16,memory,kr,1,0,뿌,NA,NULL,NA,NA,NA
2,1,16,memory,kr,2,1,저,NA,NULL,NA,NA,NA
2,1,16,memory,kr,3,2,신,NA,NULL,NA,NA,NA
2,1,16,memory,kr,4,3,특,NA,NULL,NA,NA,NA
2,1,16,memory,kr,5,4,회,NA,NULL,NA,NA,NA
2,1,16,memory,kr,6,5,단,NA,NULL,NA,NA,NA
2,1,16,updating,kr,1,3,특,연,NULL,NA,NA,yes
2,1,16,updating,kr,2,1,저,원,NULL,NA,NA,yes
2,1,16,updating,kr,3,4,회,익,NULL,NA,NA,yes
2,1,16,retrieval,kr,1,2,신,신,저,FALSE,2327,no
2,1,16,retrieval,kr,2,0,뿌,뿌,연,FALSE,13557,no
2,1,16,retrieval,kr,3,4,회,익,익,TRUE,3598,yes
2,1,16,retrieval,kr,4,1,저,원,원,TRUE,1560,yes
2,1,16,retrieval,kr,5,5,단,단,단,TRUE,5746,no
2,1,16,retrieval,kr,6,3,특,연,신,FALSE,4926,yes
2,1,16,debrief,kr,NA,NA,NA,NA,NULL,NA,NA,NA
2,1,17,memory,kr,1,0,늘,NA,NULL,NA,NA,NA
2,1,17,memory,kr,2,1,냉,NA,NULL,NA,NA,NA
2,1,17,memory,kr,3,2,환,NA,NULL,NA,NA,NA
2,1,17,memory,kr,4,3,상,NA,NULL,NA,NA,NA
2,1,17,memory,kr,5,4,포,NA,NULL,NA,NA,NA
2,1,17,memory,kr,6,5,은,NA,NULL,NA,NA,NA
2,1,17,updating,kr,1,3,상,았,NULL,NA,NA,yes
2,1,17,updating,kr,2,5,은,부,NULL,NA,NA,yes
2,1,17,updating,kr,3,0,늘,형,NULL,NA,NA,yes
2,1,17,retrieval,kr,1,1,냉,냉,상,FALSE,6126,no
2,1,17,retrieval,kr,2,2,환,환,환,TRUE,2273,no
2,1,17,retrieval,kr,3,4,포,포,줄,FALSE,9965,no
2,1,17,retrieval,kr,4,0,늘,형,냉,FALSE,7494,yes
2,1,17,retrieval,kr,5,5,은,부,부,TRUE,8528,yes
2,1,17,retrieval,kr,6,3,상,았,았,TRUE,5401,yes
2,1,17,debrief,kr,NA,NA,NA,NA,NULL,NA,NA,NA
2,1,18,memory,kr,1,0,조,NA,NULL,NA,NA,NA
2,1,18,memory,kr,2,1,나,NA,NULL,NA,NA,NA
2,1,18,memory,kr,3,2,섰,NA,NULL,NA,NA,NA
2,1,18,memory,kr,4,3,파,NA,NULL,NA,NA,NA
2,1,18,memory,kr,5,4,였,NA,NULL,NA,NA,NA
2,1,18,memory,kr,6,5,정,NA,NULL,NA,NA,NA
2,1,18,updating,kr,1,4,였,난,NULL,NA,NA,yes
2,1,18,updating,kr,2,2,섰,방,NULL,NA,NA,yes
2,1,18,updating,kr,3,5,정,데,NULL,NA,NA,yes
2,1,18,retrieval,kr,1,1,나,나,파,FALSE,7399.999999999767,no
2,1,18,retrieval,kr,2,2,섰,방,방,TRUE,2707,yes
2,1,18,retrieval,kr,3,5,정,데,데,TRUE,1636,yes
2,1,18,retrieval,kr,4,4,였,난,난,TRUE,6244,yes
2,1,18,retrieval,kr,5,0,조,조,조,TRUE,4700,no
2,1,18,retrieval,kr,6,3,파,파,난,FALSE,9093,no
2,1,18,debrief,kr,NA,NA,NA,NA,NULL,NA,NA,NA
2,1,19,memory,kr,1,0,응,NA,NULL,NA,NA,NA
2,1,19,memory,kr,2,1,벌,NA,NULL,NA,NA,NA
2,1,19,memory,kr,3,2,쓸,NA,NULL,NA,NA,NA
2,1,19,memory,kr,4,3,감,NA,NULL,NA,NA,NA
2,1,19,memory,kr,5,4,해,NA,NULL,NA,NA,NA
2,1,19,memory,kr,6,5,맞,NA,NULL,NA,NA,NA
2,1,19,updating,kr,1,4,해,진,NULL,NA,NA,yes
2,1,19,updating,kr,2,3,감,버,NULL,NA,NA,yes
2,1,19,updating,kr,3,5,맞,됐,NULL,NA,NA,yes
2,1,19,retrieval,kr,1,0,응,응,응,TRUE,3116,no
2,1,19,retrieval,kr,2,2,쓸,쓸,쓸,TRUE,7294,no
2,1,19,retrieval,kr,3,4,해,진,감,FALSE,14974,yes
2,1,19,retrieval,kr,4,1,벌,벌,벌,TRUE,3938,no
2,1,19,retrieval,kr,5,5,맞,됐,맞,FALSE,1992,yes
2,1,19,retrieval,kr,6,3,감,버,론,FALSE,3546,yes
2,1,19,debrief,kr,NA,NA,NA,NA,NULL,NA,NA,NA
2,1,20,memory,kr,1,0,낙,NA,NULL,NA,NA,NA
2,1,20,memory,kr,2,1,큼,NA,NULL,NA,NA,NA
2,1,20,memory,kr,3,2,혀,NA,NULL,NA,NA,NA
2,1,20,memory,kr,4,3,휴,NA,NULL,NA,NA,NA
2,1,20,memory,kr,5,4,날,NA,NULL,NA,NA,NA
2,1,20,memory,kr,6,5,따,NA,NULL,NA,NA,NA
2,1,20,updating,kr,1,3,휴,일,NULL,NA,NA,yes
2,1,20,updating,kr,2,0,낙,천,NULL,NA,NA,yes
2,1,20,updating,kr,3,1,큼,을,NULL,NA,NA,yes
2,1,20,retrieval,kr,1,3,휴,일,너,FALSE,14297,yes
2,1,20,retrieval,kr,2,5,따,따,천,FALSE,5372,no
2,1,20,retrieval,kr,3,1,큼,을,큼,FALSE,5869,yes
2,1,20,retrieval,kr,4,0,낙,천,따,FALSE,9396.000000000233,yes
2,1,20,retrieval,kr,5,4,날,날,천,FALSE,5191,no
2,1,20,retrieval,kr,6,2,혀,혀,혀,TRUE,1405,no
2,1,20,debrief,kr,NA,NA,NA,NA,NULL,NA,NA,NA
2,2,1,memory,cn,1,0,阵,NA,NULL,NA,NA,NA
2,2,1,memory,cn,2,1,戏,NA,NULL,NA,NA,NA
2,2,1,memory,cn,3,2,忙,NA,NULL,NA,NA,NA
2,2,1,memory,cn,4,3,压,NA,NULL,NA,NA,NA
2,2,1,memory,cn,5,4,级,NA,NULL,NA,NA,NA
2,2,1,memory,cn,6,5,市,NA,NULL,NA,NA,NA
2,2,1,updating,cn,1,3,压,尔,NULL,NA,NA,yes
2,2,1,updating,cn,2,5,市,今,NULL,NA,NA,yes
2,2,1,updating,cn,3,4,级,华,NULL,NA,NA,yes
2,2,1,retrieval,cn,1,4,级,华,华,TRUE,3682,yes
2,2,1,retrieval,cn,2,2,忙,忙,忙,TRUE,2291.000000000233,no
2,2,1,retrieval,cn,3,5,市,今,今,TRUE,3714,yes
2,2,1,retrieval,cn,4,3,压,尔,尔,TRUE,3311,yes
2,2,1,retrieval,cn,5,1,戏,戏,市,FALSE,2929.000000000233,no
2,2,1,retrieval,cn,6,0,阵,阵,阵,TRUE,856,no
2,2,1,debrief,cn,NA,NA,NA,NA,NULL,NA,NA,NA
2,2,2,memory,cn,1,0,句,NA,NULL,NA,NA,NA
2,2,2,memory,cn,2,1,叹,NA,NULL,NA,NA,NA
2,2,2,memory,cn,3,2,邦,NA,NULL,NA,NA,NA
2,2,2,memory,cn,4,3,扎,NA,NULL,NA,NA,NA
2,2,2,memory,cn,5,4,本,NA,NULL,NA,NA,NA
2,2,2,memory,cn,6,5,衣,NA,NULL,NA,NA,NA
2,2,2,updating,cn,1,2,邦,厌,NULL,NA,NA,yes
2,2,2,updating,cn,2,4,本,订,NULL,NA,NA,yes
2,2,2,updating,cn,3,5,衣,巩,NULL,NA,NA,yes
2,2,2,retrieval,cn,1,1,叹,叹,叹,TRUE,3671,no
2,2,2,retrieval,cn,2,3,扎,扎,扎,TRUE,2010.9999999997672,no
2,2,2,retrieval,cn,3,2,邦,厌,厌,TRUE,3430,yes
2,2,2,retrieval,cn,4,4,本,订,订,TRUE,3268,yes
2,2,2,retrieval,cn,5,5,衣,巩,巩,TRUE,1741.9999999997672,yes
2,2,2,retrieval,cn,6,0,句,句,句,TRUE,3185.000000000233,no
2,2,2,debrief,cn,NA,NA,NA,NA,NULL,NA,NA,NA
2,2,3,memory,cn,1,0,召,NA,NULL,NA,NA,NA
2,2,3,memory,cn,2,1,贞,NA,NULL,NA,NA,NA
2,2,3,memory,cn,3,2,母,NA,NULL,NA,NA,NA
2,2,3,memory,cn,4,3,收,NA,NULL,NA,NA,NA
2,2,3,memory,cn,5,4,为,NA,NULL,NA,NA,NA
2,2,3,memory,cn,6,5,叶,NA,NULL,NA,NA,NA
2,2,3,updating,cn,1,4,为,仲,NULL,NA,NA,yes
2,2,3,updating,cn,2,2,母,五,NULL,NA,NA,yes
2,2,3,updating,cn,3,1,贞,庄,NULL,NA,NA,yes
2,2,3,retrieval,cn,1,3,收,收,收,TRUE,2163,no
2,2,3,retrieval,cn,2,0,召,召,召,TRUE,4837,no
2,2,3,retrieval,cn,3,5,叶,叶,仲,FALSE,6707,no
2,2,3,retrieval,cn,4,1,贞,庄,五,FALSE,5388,yes
2,2,3,retrieval,cn,5,2,母,五,庄,FALSE,6329,yes
2,2,3,retrieval,cn,6,4,为,仲,叶,FALSE,8335,yes
2,2,3,debrief,cn,NA,NA,NA,NA,NULL,NA,NA,NA
2,2,4,memory,cn,1,0,氏,NA,NULL,NA,NA,NA
2,2,4,memory,cn,2,1,合,NA,NULL,NA,NA,NA
2,2,4,memory,cn,3,2,币,NA,NULL,NA,NA,NA
2,2,4,memory,cn,4,3,永,NA,NULL,NA,NA,NA
2,2,4,memory,cn,5,4,巴,NA,NULL,NA,NA,NA
2,2,4,memory,cn,6,5,矛,NA,NULL,NA,NA,NA
2,2,4,updating,cn,1,0,氏,兆,NULL,NA,NA,yes
2,2,4,updating,cn,2,4,巴,驰,NULL,NA,NA,yes
2,2,4,updating,cn,3,1,合,阶,NULL,NA,NA,yes
2,2,4,retrieval,cn,1,4,巴,驰,驰,TRUE,2808.999999999767,yes
2,2,4,retrieval,cn,2,2,币,币,币,TRUE,3607.999999999767,no
2,2,4,retrieval,cn,3,1,合,阶,永,FALSE,10535.000000000233,yes
2,2,4,retrieval,cn,4,5,矛,矛,矛,TRUE,5289.000000000233,no
2,2,4,retrieval,cn,5,0,氏,兆,兆,TRUE,4684.000000000233,yes
2,2,4,retrieval,cn,6,3,永,永,永,TRUE,4988.999999999767,no
2,2,4,debrief,cn,NA,NA,NA,NA,NULL,NA,NA,NA
2,2,5,memory,cn,1,0,纤,NA,NULL,NA,NA,NA
2,2,5,memory,cn,2,1,网,NA,NULL,NA,NA,NA
2,2,5,memory,cn,3,2,吓,NA,NULL,NA,NA,NA
2,2,5,memory,cn,4,3,丹,NA,NULL,NA,NA,NA
2,2,5,memory,cn,5,4,分,NA,NULL,NA,NA,NA
2,2,5,memory,cn,6,5,夺,NA,NULL,NA,NA,NA
2,2,5,updating,cn,1,3,丹,休,NULL,NA,NA,yes
2,2,5,updating,cn,2,5,夺,边,NULL,NA,NA,yes
2,2,5,updating,cn,3,0,纤,吁,NULL,NA,NA,yes
2,2,5,retrieval,cn,1,3,丹,休,休,TRUE,3256,yes
2,2,5,retrieval,cn,2,4,分,分,分,TRUE,1279,no
2,2,5,retrieval,cn,3,5,夺,边,边,TRUE,884,yes
2,2,5,retrieval,cn,4,2,吓,吓,吓,TRUE,9211,no
2,2,5,retrieval,cn,5,1,网,网,网,TRUE,1967,no
2,2,5,retrieval,cn,6,0,纤,吁,吁,TRUE,901.0000000004657,yes
2,2,5,debrief,cn,NA,NA,NA,NA,NULL,NA,NA,NA
2,2,6,memory,cn,1,0,扔,NA,NULL,NA,NA,NA
2,2,6,memory,cn,2,1,水,NA,NULL,NA,NA,NA
2,2,6,memory,cn,3,2,而,NA,NULL,NA,NA,NA
2,2,6,memory,cn,4,3,早,NA,NULL,NA,NA,NA
2,2,6,memory,cn,5,4,阳,NA,NULL,NA,NA,NA
2,2,6,memory,cn,6,5,冰,NA,NULL,NA,NA,NA
2,2,6,updating,cn,1,0,扔,扣,NULL,NA,NA,yes
2,2,6,updating,cn,2,1,水,动,NULL,NA,NA,yes
2,2,6,updating,cn,3,5,冰,书,NULL,NA,NA,yes
2,2,6,retrieval,cn,1,3,早,早,早,TRUE,2783.9999999995343,no
2,2,6,retrieval,cn,2,0,扔,扣,扣,TRUE,1776,yes
2,2,6,retrieval,cn,3,2,而,而,而,TRUE,1383,no
2,2,6,retrieval,cn,4,5,冰,书,书,TRUE,1772.0000000004657,yes
2,2,6,retrieval,cn,5,1,水,动,动,TRUE,3040,yes
2,2,6,retrieval,cn,6,4,阳,阳,阳,TRUE,3130,no
2,2,6,debrief,cn,NA,NA,NA,NA,NULL,NA,NA,NA
2,2,7,memory,cn,1,0,鸟,NA,NULL,NA,NA,NA
2,2,7,memory,cn,2,1,少,NA,NULL,NA,NA,NA
2,2,7,memory,cn,3,2,必,NA,NULL,NA,NA,NA
2,2,7,memory,cn,4,3,丰,NA,NULL,NA,NA,NA
2,2,7,memory,cn,5,4,共,NA,NULL,NA,NA,NA
2,2,7,memory,cn,6,5,帅,NA,NULL,NA,NA,NA
2,2,7,updating,cn,1,5,帅,议,NULL,NA,NA,yes
2,2,7,updating,cn,2,1,少,开,NULL,NA,NA,yes
2,2,7,updating,cn,3,0,鸟,正,NULL,NA,NA,yes
2,2,7,retrieval,cn,1,1,少,开,正,FALSE,1165,yes
2,2,7,retrieval,cn,2,5,帅,议,议,TRUE,6213,yes
2,2,7,retrieval,cn,3,0,鸟,正,正,TRUE,1326,yes
2,2,7,retrieval,cn,4,2,必,必,必,TRUE,3149,no
2,2,7,retrieval,cn,5,3,丰,丰,丰,TRUE,4301.999999999534,no
2,2,7,retrieval,cn,6,4,共,共,共,TRUE,2884.9999999995343,no
2,2,7,debrief,cn,NA,NA,NA,NA,NULL,NA,NA,NA
2,2,8,memory,cn,1,0,乎,NA,NULL,NA,NA,NA
2,2,8,memory,cn,2,1,丝,NA,NULL,NA,NA,NA
2,2,8,memory,cn,3,2,闯,NA,NULL,NA,NA,NA
2,2,8,memory,cn,4,3,企,NA,NULL,NA,NA,NA
2,2,8,memory,cn,5,4,权,NA,NULL,NA,NA,NA
2,2,8,memory,cn,6,5,地,NA,NULL,NA,NA,NA
2,2,8,updating,cn,1,0,乎,臣,NULL,NA,NA,yes
2,2,8,updating,cn,2,4,权,册,NULL,NA,NA,yes
2,2,8,updating,cn,3,2,闯,仗,NULL,NA,NA,yes
2,2,8,retrieval,cn,1,4,权,册,权,FALSE,10149.999999999534,yes
2,2,8,retrieval,cn,2,3,企,企,闯,FALSE,3159.9999999995343,no
2,2,8,retrieval,cn,3,1,丝,丝,丝,TRUE,2503,no
2,2,8,retrieval,cn,4,5,地,地,地,TRUE,3106,no
2,2,8,retrieval,cn,5,0,乎,臣,臣,TRUE,1702,yes
2,2,8,retrieval,cn,6,2,闯,仗,仗,TRUE,5022,yes
2,2,8,debrief,cn,NA,NA,NA,NA,NULL,NA,NA,NA
2,2,9,memory,cn,1,0,凶,NA,NULL,NA,NA,NA
2,2,9,memory,cn,2,1,匆,NA,NULL,NA,NA,NA
2,2,9,memory,cn,3,2,允,NA,NULL,NA,NA,NA
2,2,9,memory,cn,4,3,斤,NA,NULL,NA,NA,NA
2,2,9,memory,cn,5,4,业,NA,NULL,NA,NA,NA
2,2,9,memory,cn,6,5,生,NA,NULL,NA,NA,NA
2,2,9,updating,cn,1,1,匆,多,NULL,NA,NA,yes
2,2,9,updating,cn,2,5,生,爪,NULL,NA,NA,yes
2,2,9,updating,cn,3,0,凶,份,NULL,NA,NA,yes
2,2,9,retrieval,cn,1,1,匆,多,允,FALSE,10119,yes
2,2,9,retrieval,cn,2,4,业,业,四,FALSE,3577.0000000004657,no
2,2,9,retrieval,cn,3,0,凶,份,爪,FALSE,13361,yes
2,2,9,retrieval,cn,4,3,斤,斤,份,FALSE,9511,no
2,2,9,retrieval,cn,5,2,允,允,允,TRUE,3752,no
2,2,9,retrieval,cn,6,5,生,爪,爪,TRUE,2201,yes
2,2,9,debrief,cn,NA,NA,NA,NA,NULL,NA,NA,NA
2,2,10,memory,cn,1,0,问,NA,NULL,NA,NA,NA
2,2,10,memory,cn,2,1,切,NA,NULL,NA,NA,NA
2,2,10,memory,cn,3,2,史,NA,NULL,NA,NA,NA
2,2,10,memory,cn,4,3,互,NA,NULL,NA,NA,NA
2,2,10,memory,cn,5,4,尽,NA,NULL,NA,NA,NA
2,2,10,memory,cn,6,5,匹,NA,NULL,NA,NA,NA
2,2,10,updating,cn,1,1,切,扫,NULL,NA,NA,yes
2,2,10,updating,cn,2,0,问,火,NULL,NA,NA,yes
2,2,10,updating,cn,3,5,匹,向,NULL,NA,NA,yes
2,2,10,retrieval,cn,1,0,问,火,火,TRUE,2029,yes
2,2,10,retrieval,cn,2,1,切,扫,扫,TRUE,913,yes
2,2,10,retrieval,cn,3,4,尽,尽,切,FALSE,7145,no
2,2,10,retrieval,cn,4,3,互,互,办,FALSE,14218.000000000466,no
2,2,10,retrieval,cn,5,2,史,史,史,TRUE,955.0000000004657,no
2,2,10,retrieval,cn,6,5,匹,向,向,TRUE,2488,yes
2,2,10,debrief,cn,NA,NA,NA,NA,NULL,NA,NA,NA
2,2,11,memory,cn,1,0,军,NA,NULL,NA,NA,NA
2,2,11,memory,cn,2,1,奸,NA,NULL,NA,NA,NA
2,2,11,memory,cn,3,2,犯,NA,NULL,NA,NA,NA
2,2,11,memory,cn,4,3,牙,NA,NULL,NA,NA,NA
2,2,11,memory,cn,5,4,化,NA,NULL,NA,NA,NA
2,2,11,memory,cn,6,5,岂,NA,NULL,NA,NA,NA
2,2,11,updating,cn,1,5,岂,曲,NULL,NA,NA,yes
2,2,11,updating,cn,2,1,奸,肉,NULL,NA,NA,yes
2,2,11,updating,cn,3,4,化,叭,NULL,NA,NA,yes
2,2,11,retrieval,cn,1,2,犯,犯,犯,TRUE,3070,no
2,2,11,retrieval,cn,2,0,军,军,军,TRUE,1386,no
2,2,11,retrieval,cn,3,3,牙,牙,牙,TRUE,1370,no
2,2,11,retrieval,cn,4,5,岂,曲,曲,TRUE,1760.9999999995343,yes
2,2,11,retrieval,cn,5,1,奸,肉,肉,TRUE,2144,yes
2,2,11,retrieval,cn,6,4,化,叭,化,FALSE,11275,yes
2,2,11,debrief,cn,NA,NA,NA,NA,NULL,NA,NA,NA
2,2,12,memory,cn,1,0,伏,NA,NULL,NA,NA,NA
2,2,12,memory,cn,2,1,夫,NA,NULL,NA,NA,NA
2,2,12,memory,cn,3,2,户,NA,NULL,NA,NA,NA
2,2,12,memory,cn,4,3,字,NA,NULL,NA,NA,NA
2,2,12,memory,cn,5,4,似,NA,NULL,NA,NA,NA
2,2,12,memory,cn,6,5,光,NA,NULL,NA,NA,NA
2,2,12,updating,cn,1,2,户,贝,NULL,NA,NA,yes
2,2,12,updating,cn,2,1,夫,失,NULL,NA,NA,yes
2,2,12,updating,cn,3,3,字,纪,NULL,NA,NA,yes
2,2,12,retrieval,cn,1,4,似,似,似,TRUE,2611,no
2,2,12,retrieval,cn,2,3,字,纪,贝,FALSE,3500.9999999995343,yes
2,2,12,retrieval,cn,3,2,户,贝,户,FALSE,3364,yes
2,2,12,retrieval,cn,4,0,伏,伏,伏,TRUE,2942,no
2,2,12,retrieval,cn,5,5,光,光,光,TRUE,2283.0000000004657,no
2,2,12,retrieval,cn,6,1,夫,失,失,TRUE,1423,yes
2,2,12,debrief,cn,NA,NA,NA,NA,NULL,NA,NA,NA
2,2,13,memory,cn,1,0,反,NA,NULL,NA,NA,NA
2,2,13,memory,cn,2,1,牛,NA,NULL,NA,NA,NA
2,2,13,memory,cn,3,2,古,NA,NULL,NA,NA,NA
2,2,13,memory,cn,4,3,灭,NA,NULL,NA,NA,NA
2,2,13,memory,cn,5,4,训,NA,NULL,NA,NA,NA
2,2,13,memory,cn,6,5,汇,NA,NULL,NA,NA,NA
2,2,13,updating,cn,1,2,古,农,NULL,NA,NA,yes
2,2,13,updating,cn,2,3,灭,曰,NULL,NA,NA,yes
2,2,13,updating,cn,3,4,训,文,NULL,NA,NA,yes
2,2,13,retrieval,cn,1,4,训,文,文,TRUE,2456,yes
2,2,13,retrieval,cn,2,0,反,反,反,TRUE,2017.9999999995343,no
2,2,13,retrieval,cn,3,3,灭,曰,曰,TRUE,2992,yes
2,2,13,retrieval,cn,4,2,古,农,古,FALSE,2912,yes
2,2,13,retrieval,cn,5,5,汇,汇,汇,TRUE,6286,no
2,2,13,retrieval,cn,6,1,牛,牛,牛,TRUE,1524.0000000004657,no
2,2,13,debrief,cn,NA,NA,NA,NA,NULL,NA,NA,NA
2,2,14,memory,cn,1,0,主,NA,NULL,NA,NA,NA
2,2,14,memory,cn,2,1,旦,NA,NULL,NA,NA,NA
2,2,14,memory,cn,3,2,匀,NA,NULL,NA,NA,NA
2,2,14,memory,cn,4,3,吗,NA,NULL,NA,NA,NA
2,2,14,memory,cn,5,4,协,NA,NULL,NA,NA,NA
2,2,14,memory,cn,6,5,发,NA,NULL,NA,NA,NA
2,2,14,updating,cn,1,3,吗,北,NULL,NA,NA,yes
2,2,14,updating,cn,2,5,发,印,NULL,NA,NA,yes
2,2,14,updating,cn,3,1,旦,导,NULL,NA,NA,yes
2,2,14,retrieval,cn,1,0,主,主,主,TRUE,1724.9999999995343,no
2,2,14,retrieval,cn,2,5,发,印,印,TRUE,1846,yes
2,2,14,retrieval,cn,3,2,匀,匀,匀,TRUE,2310,no
2,2,14,retrieval,cn,4,3,吗,北,北,TRUE,1546,yes
2,2,14,retrieval,cn,5,1,旦,导,导,TRUE,2075,yes
2,2,14,retrieval,cn,6,4,协,协,协,TRUE,1935,no
2,2,14,debrief,cn,NA,NA,NA,NA,NULL,NA,NA,NA
2,2,15,memory,cn,1,0,异,NA,NULL,NA,NA,NA
2,2,15,memory,cn,2,1,韦,NA,NULL,NA,NA,NA
2,2,15,memory,cn,3,2,尼,NA,NULL,NA,NA,NA
2,2,15,memory,cn,4,3,仅,NA,NULL,NA,NA,NA
2,2,15,memory,cn,5,4,争,NA,NULL,NA,NA,NA
2,2,15,memory,cn,6,5,廷,NA,NULL,NA,NA,NA
2,2,15,updating,cn,1,2,尼,乐,NULL,NA,NA,yes
2,2,15,updating,cn,2,1,韦,伦,NULL,NA,NA,yes
2,2,15,updating,cn,3,3,仅,汉,NULL,NA,NA,yes
2,2,15,retrieval,cn,1,5,廷,廷,廷,TRUE,2396,no
2,2,15,retrieval,cn,2,2,尼,乐,乐,TRUE,1436,yes
2,2,15,retrieval,cn,3,4,争,争,争,TRUE,1963,no
2,2,15,retrieval,cn,4,1,韦,伦,伦,TRUE,3058,yes
2,2,15,retrieval,cn,5,3,仅,汉,汉,TRUE,1420,yes
2,2,15,retrieval,cn,6,0,异,异,异,TRUE,3766,no
2,2,15,debrief,cn,NA,NA,NA,NA,NULL,NA,NA,NA
2,2,16,memory,cn,1,0,刘,NA,NULL,NA,NA,NA
2,2,16,memory,cn,2,1,圣,NA,NULL,NA,NA,NA
2,2,16,memory,cn,3,2,达,NA,NULL,NA,NA,NA
2,2,16,memory,cn,4,3,去,NA,NULL,NA,NA,NA
2,2,16,memory,cn,5,4,汁,NA,NULL,NA,NA,NA
2,2,16,memory,cn,6,5,不,NA,NULL,NA,NA,NA
2,2,16,updating,cn,1,3,去,闭,NULL,NA,NA,yes
2,2,16,updating,cn,2,5,不,石,NULL,NA,NA,yes
2,2,16,updating,cn,3,4,汁,毕,NULL,NA,NA,yes
2,2,16,retrieval,cn,1,3,去,闭,闭,TRUE,2340,yes
2,2,16,retrieval,cn,2,0,刘,刘,刘,TRUE,1689,no
2,2,16,retrieval,cn,3,2,达,达,达,TRUE,1272.0000000004657,no
2,2,16,retrieval,cn,4,4,汁,毕,毕,TRUE,2709,yes
2,2,16,retrieval,cn,5,1,圣,圣,圣,TRUE,2646,no
2,2,16,retrieval,cn,6,5,不,石,石,TRUE,1035,yes
2,2,16,debrief,cn,NA,NA,NA,NA,NULL,NA,NA,NA
2,2,17,memory,cn,1,0,六,NA,NULL,NA,NA,NA
2,2,17,memory,cn,2,1,至,NA,NULL,NA,NA,NA
2,2,17,memory,cn,3,2,叫,NA,NULL,NA,NA,NA
2,2,17,memory,cn,4,3,匠,NA,NULL,NA,NA,NA
2,2,17,memory,cn,5,4,妄,NA,NULL,NA,NA,NA
2,2,17,memory,cn,6,5,尤,NA,NULL,NA,NA,NA
2,2,17,updating,cn,1,5,尤,风,NULL,NA,NA,yes
2,2,17,updating,cn,2,4,妄,仪,NULL,NA,NA,yes
2,2,17,updating,cn,3,3,匠,由,NULL,NA,NA,yes
2,2,17,retrieval,cn,1,0,六,六,六,TRUE,2813,no
2,2,17,retrieval,cn,2,5,尤,风,风,TRUE,4393,yes
2,2,17,retrieval,cn,3,1,至,至,至,TRUE,4932.000000000466,no
2,2,17,retrieval,cn,4,4,妄,仪,仪,TRUE,4925,yes
2,2,17,retrieval,cn,5,2,叫,叫,叫,TRUE,2509,no
2,2,17,retrieval,cn,6,3,匠,由,由,TRUE,6998,yes
2,2,17,debrief,cn,NA,NA,NA,NA,NULL,NA,NA,NA
2,2,18,memory,cn,1,0,羊,NA,NULL,NA,NA,NA
2,2,18,memory,cn,2,1,交,NA,NULL,NA,NA,NA
2,2,18,memory,cn,3,2,目,NA,NULL,NA,NA,NA
2,2,18,memory,cn,4,3,众,NA,NULL,NA,NA,NA
2,2,18,memory,cn,5,4,论,NA,NULL,NA,NA,NA
2,2,18,memory,cn,6,5,则,NA,NULL,NA,NA,NA
2,2,18,updating,cn,1,0,羊,刊,NULL,NA,NA,yes
2,2,18,updating,cn,2,2,目,买,NULL,NA,NA,yes
2,2,18,updating,cn,3,1,交,手,NULL,NA,NA,yes
2,2,18,retrieval,cn,1,2,目,买,买,TRUE,2418,yes
2,2,18,retrieval,cn,2,3,众,众,众,TRUE,4164,no
2,2,18,retrieval,cn,3,5,则,则,则,TRUE,1268,no
2,2,18,retrieval,cn,4,1,交,手,手,TRUE,2154,yes
2,2,18,retrieval,cn,5,0,羊,刊,刊,TRUE,1072.0000000004657,yes
2,2,18,retrieval,cn,6,4,论,论,论,TRUE,1974,no
2,2,18,debrief,cn,NA,NA,NA,NA,NULL,NA,NA,NA
2,2,19,memory,cn,1,0,孕,NA,NULL,NA,NA,NA
2,2,19,memory,cn,2,1,布,NA,NULL,NA,NA,NA
2,2,19,memory,cn,3,2,仆,NA,NULL,NA,NA,NA
2,2,19,memory,cn,4,3,厉,NA,NULL,NA,NA,NA
2,2,19,memory,cn,5,4,讯,NA,NULL,NA,NA,NA
2,2,19,memory,cn,6,5,皮,NA,NULL,NA,NA,NA
2,2,19,updating,cn,1,0,孕,幼,NULL,NA,NA,yes
2,2,19,updating,cn,2,2,仆,尘,NULL,NA,NA,yes
2,2,19,updating,cn,3,3,厉,奶,NULL,NA,NA,yes
2,2,19,retrieval,cn,1,2,仆,尘,尘,TRUE,8887,yes
2,2,19,retrieval,cn,2,1,布,布,布,TRUE,4311,no
2,2,19,retrieval,cn,3,3,厉,奶,奶,TRUE,1088,yes
2,2,19,retrieval,cn,4,4,讯,讯,NULL,FALSE,NA,no
2,2,19,retrieval,cn,5,0,孕,幼,厉,FALSE,2263,yes
2,2,19,retrieval,cn,6,5,皮,皮,吕,FALSE,1952,no
2,2,19,debrief,cn,NA,NA,NA,NA,NULL,NA,NA,NA
2,2,20,memory,cn,1,0,轨,NA,NULL,NA,NA,NA
2,2,20,memory,cn,2,1,防,NA,NULL,NA,NA,NA
2,2,20,memory,cn,3,2,穴,NA,NULL,NA,NA,NA
2,2,20,memory,cn,4,3,礼,NA,NULL,NA,NA,NA
2,2,20,memory,cn,5,4,讼,NA,NULL,NA,NA,NA
2,2,20,memory,cn,6,5,旧,NA,NULL,NA,NA,NA
2,2,20,updating,cn,1,0,轨,无,NULL,NA,NA,yes
2,2,20,updating,cn,2,2,穴,竹,NULL,NA,NA,yes
2,2,20,updating,cn,3,4,讼,外,NULL,NA,NA,yes
2,2,20,retrieval,cn,1,3,礼,礼,轨,FALSE,1676,no
2,2,20,retrieval,cn,2,5,旧,旧,旧,TRUE,2407,no
2,2,20,retrieval,cn,3,2,穴,竹,竹,TRUE,2669,yes
2,2,20,retrieval,cn,4,1,防,防,讼,FALSE,11596,no
2,2,20,retrieval,cn,5,0,轨,无,吉,FALSE,5136,yes
2,2,20,retrieval,cn,6,4,讼,外,防,FALSE,1136,yes
2,2,20,debrief,cn,NA,NA,NA,NA,NULL,NA,NA,NA
1,1,1,memory,cn,1,0,册,NA,NULL,NA,NA,NA
1,1,1,memory,cn,2,1,尺,NA,NULL,NA,NA,NA
1,1,1,memory,cn,3,2,史,NA,NULL,NA,NA,NA
1,1,1,memory,cn,4,3,记,NA,NULL,NA,NA,NA
1,1,1,memory,cn,5,4,异,NA,NULL,NA,NA,NA
1,1,1,memory,cn,6,5,巴,NA,NULL,NA,NA,NA
1,1,1,updating,cn,1,3,记,训,NULL,NA,NA,yes
1,1,1,updating,cn,2,2,史,军,NULL,NA,NA,yes
1,1,1,updating,cn,3,4,异,处,NULL,NA,NA,yes
1,1,1,retrieval,cn,1,0,册,册,册,TRUE,2683.5,no
1,1,1,retrieval,cn,2,3,记,训,训,TRUE,2447,yes
1,1,1,retrieval,cn,3,2,史,军,军,TRUE,1289.2000002861023,yes
1,1,1,retrieval,cn,4,5,巴,巴,巴,TRUE,2014,no
1,1,1,retrieval,cn,5,1,尺,尺,尺,TRUE,3736.2999997138977,no
1,1,1,retrieval,cn,6,4,异,处,处,TRUE,2918.199999809265,yes
1,1,1,debrief,cn,NA,NA,NA,NA,NULL,NA,NA,NA
1,1,2,memory,cn,1,0,不,NA,NULL,NA,NA,NA
1,1,2,memory,cn,2,1,邓,NA,NULL,NA,NA,NA
1,1,2,memory,cn,3,2,场,NA,NULL,NA,NA,NA
1,1,2,memory,cn,4,3,交,NA,NULL,NA,NA,NA
1,1,2,memory,cn,5,4,兄,NA,NULL,NA,NA,NA
1,1,2,memory,cn,6,5,访,NA,NULL,NA,NA,NA
1,1,2,updating,cn,1,4,兄,汁,NULL,NA,NA,yes
1,1,2,updating,cn,2,0,不,由,NULL,NA,NA,yes
1,1,2,updating,cn,3,3,交,网,NULL,NA,NA,yes
1,1,2,retrieval,cn,1,3,交,网,网,TRUE,2394.5999999046326,yes
1,1,2,retrieval,cn,2,0,不,由,由,TRUE,1798.6999998092651,yes
1,1,2,retrieval,cn,3,5,访,访,访,TRUE,3262.0999999046326,no
1,1,2,retrieval,cn,4,4,兄,汁,NULL,FALSE,NA,yes
1,1,2,retrieval,cn,5,1,邓,邓,邓,TRUE,4056.2999997138977,no
1,1,2,retrieval,cn,6,2,场,场,网,FALSE,3985,no
1,1,2,debrief,cn,NA,NA,NA,NA,NULL,NA,NA,NA
1,1,3,memory,cn,1,0,甘,NA,NULL,NA,NA,NA
1,1,3,memory,cn,2,1,文,NA,NULL,NA,NA,NA
1,1,3,memory,cn,3,2,术,NA,NULL,NA,NA,NA
1,1,3,memory,cn,4,3,扫,NA,NULL,NA,NA,NA
1,1,3,memory,cn,5,4,兰,NA,NULL,NA,NA,NA
1,1,3,memory,cn,6,5,行,NA,NULL,NA,NA,NA
1,1,3,updating,cn,1,2,术,各,NULL,NA,NA,yes
1,1,3,updating,cn,2,5,行,全,NULL,NA,NA,yes
1,1,3,updating,cn,3,3,扫,丛,NULL,NA,NA,yes
1,1,3,retrieval,cn,1,3,扫,丛,丛,TRUE,5668.199999809265,yes
1,1,3,retrieval,cn,2,2,术,各,术,FALSE,4078.5999999046326,yes
1,1,3,retrieval,cn,3,5,行,全,全,TRUE,2520.800000190735,yes
1,1,3,retrieval,cn,4,1,文,文,文,TRUE,1839.8000001907349,no
1,1,3,retrieval,cn,5,0,甘,甘,甘,TRUE,2611,no
1,1,3,retrieval,cn,6,4,兰,兰,兰,TRUE,3719.9000000953674,no
1,1,3,debrief,cn,NA,NA,NA,NA,NULL,NA,NA,NA
1,1,4,memory,cn,1,0,则,NA,NULL,NA,NA,NA
1,1,4,memory,cn,2,1,瓦,NA,NULL,NA,NA,NA
1,1,4,memory,cn,3,2,幻,NA,NULL,NA,NA,NA
1,1,4,memory,cn,4,3,包,NA,NULL,NA,NA,NA
1,1,4,memory,cn,5,4,帅,NA,NULL,NA,NA,NA
1,1,4,memory,cn,6,5,五,NA,NULL,NA,NA,NA
1,1,4,updating,cn,1,3,包,仔,NULL,NA,NA,yes
1,1,4,updating,cn,2,2,幻,忆,NULL,NA,NA,yes
1,1,4,updating,cn,3,0,则,功,NULL,NA,NA,yes
1,1,4,retrieval,cn,1,1,瓦,瓦,瓦,TRUE,2763.199999809265,no
1,1,4,retrieval,cn,2,3,包,仔,包,FALSE,3554.800000190735,yes
1,1,4,retrieval,cn,3,0,则,功,则,FALSE,9493.5,yes
1,1,4,retrieval,cn,4,4,帅,帅,幻,FALSE,2000.1999998092651,no
1,1,4,retrieval,cn,5,5,五,五,五,TRUE,3011,no
1,1,4,retrieval,cn,6,2,幻,忆,仔,FALSE,3525,yes
1,1,4,debrief,cn,NA,NA,NA,NA,NULL,NA,NA,NA
1,1,5,memory,cn,1,0,云,NA,NULL,NA,NA,NA
1,1,5,memory,cn,2,1,地,NA,NULL,NA,NA,NA
1,1,5,memory,cn,3,2,计,NA,NULL,NA,NA,NA
1,1,5,memory,cn,4,3,方,NA,NULL,NA,NA,NA
1,1,5,memory,cn,5,4,机,NA,NULL,NA,NA,NA
1,1,5,memory,cn,6,5,扩,NA,NULL,NA,NA,NA
1,1,5,updating,cn,1,1,地,老,NULL,NA,NA,yes
1,1,5,updating,cn,2,5,扩,劝,NULL,NA,NA,yes
1,1,5,updating,cn,3,2,计,民,NULL,NA,NA,yes
1,1,5,retrieval,cn,1,3,方,方,方,TRUE,3446,no
1,1,5,retrieval,cn,2,1,地,老,老,TRUE,1746.5999999046326,yes
1,1,5,retrieval,cn,3,5,扩,劝,劝,TRUE,1752.8999996185303,yes
1,1,5,retrieval,cn,4,2,计,民,民,TRUE,1886.3000001907349,yes
1,1,5,retrieval,cn,5,0,云,云,云,TRUE,1645.2000002861023,no
1,1,5,retrieval,cn,6,4,机,机,机,TRUE,3128.5,no
1,1,5,debrief,cn,NA,NA,NA,NA,NULL,NA,NA,NA
1,1,6,memory,cn,1,0,玄,NA,NULL,NA,NA,NA
1,1,6,memory,cn,2,1,平,NA,NULL,NA,NA,NA
1,1,6,memory,cn,3,2,斗,NA,NULL,NA,NA,NA
1,1,6,memory,cn,4,3,石,NA,NULL,NA,NA,NA
1,1,6,memory,cn,5,4,伐,NA,NULL,NA,NA,NA
1,1,6,memory,cn,6,5,叭,NA,NULL,NA,NA,NA
1,1,6,updating,cn,1,2,斗,协,NULL,NA,NA,yes
1,1,6,updating,cn,2,3,石,丰,NULL,NA,NA,yes
1,1,6,updating,cn,3,4,伐,血,NULL,NA,NA,yes
1,1,6,retrieval,cn,1,2,斗,协,协,TRUE,2177.9000000953674,yes
1,1,6,retrieval,cn,2,4,伐,血,血,TRUE,1787.4000000953674,yes
1,1,6,retrieval,cn,3,1,平,平,平,TRUE,3312.6000003814697,no
1,1,6,retrieval,cn,4,5,叭,叭,叭,TRUE,2298.8999996185303,no
1,1,6,retrieval,cn,5,3,石,丰,丰,TRUE,3490.699999809265,yes
1,1,6,retrieval,cn,6,0,玄,玄,玄,TRUE,4324.900000095367,no
1,1,6,debrief,cn,NA,NA,NA,NA,NULL,NA,NA,NA
1,1,7,memory,cn,1,0,伊,NA,NULL,NA,NA,NA
1,1,7,memory,cn,2,1,冰,NA,NULL,NA,NA,NA
1,1,7,memory,cn,3,2,阶,NA,NULL,NA,NA,NA
1,1,7,memory,cn,4,3,订,NA,NULL,NA,NA,NA
1,1,7,memory,cn,5,4,什,NA,NULL,NA,NA,NA
1,1,7,memory,cn,6,5,介,NA,NULL,NA,NA,NA
1,1,7,updating,cn,1,3,订,亦,NULL,NA,NA,yes
1,1,7,updating,cn,2,5,介,引,NULL,NA,NA,yes
1,1,7,updating,cn,3,2,阶,辽,NULL,NA,NA,yes
1,1,7,retrieval,cn,1,4,什,什,什,TRUE,3200.2000002861023,no
1,1,7,retrieval,cn,2,5,介,引,引,TRUE,2647,yes
1,1,7,retrieval,cn,3,0,伊,伊,伊,TRUE,4980.199999809265,no
1,1,7,retrieval,cn,4,3,订,亦,亦,TRUE,6154,yes
1,1,7,retrieval,cn,5,2,阶,辽,辽,TRUE,2265.0999999046326,yes
1,1,7,retrieval,cn,6,1,冰,冰,冰,TRUE,2345.0999999046326,no
1,1,7,debrief,cn,NA,NA,NA,NA,NULL,NA,NA,NA
1,1,8,memory,cn,1,0,伪,NA,NULL,NA,NA,NA
1,1,8,memory,cn,2,1,厅,NA,NULL,NA,NA,NA
1,1,8,memory,cn,3,2,历,NA,NULL,NA,NA,NA
1,1,8,memory,cn,4,3,母,NA,NULL,NA,NA,NA
1,1,8,memory,cn,5,4,认,NA,NULL,NA,NA,NA
1,1,8,memory,cn,6,5,叶,NA,NULL,NA,NA,NA
1,1,8,updating,cn,1,3,母,仙,NULL,NA,NA,yes
1,1,8,updating,cn,2,4,认,生,NULL,NA,NA,yes
1,1,8,updating,cn,3,5,叶,成,NULL,NA,NA,yes
1,1,8,retrieval,cn,1,1,厅,厅,厅,TRUE,3133.9000000953674,no
1,1,8,retrieval,cn,2,2,历,历,叶,FALSE,10398.900000095367,no
1,1,8,retrieval,cn,3,4,认,生,生,TRUE,4215,yes
1,1,8,retrieval,cn,4,3,母,仙,仙,TRUE,1250.1999998092651,yes
1,1,8,retrieval,cn,5,5,叶,成,成,TRUE,1244,yes
1,1,8,retrieval,cn,6,0,伪,伪,伪,TRUE,2934,no
1,1,8,debrief,cn,NA,NA,NA,NA,NULL,NA,NA,NA
1,1,9,memory,cn,1,0,叹,NA,NULL,NA,NA,NA
1,1,9,memory,cn,2,1,龙,NA,NULL,NA,NA,NA
1,1,9,memory,cn,3,2,王,NA,NULL,NA,NA,NA
1,1,9,memory,cn,4,3,艺,NA,NULL,NA,NA,NA
1,1,9,memory,cn,5,4,师,NA,NULL,NA,NA,NA
1,1,9,memory,cn,6,5,那,NA,NULL,NA,NA,NA
1,1,9,updating,cn,1,1,龙,孙,NULL,NA,NA,yes
1,1,9,updating,cn,2,5,那,乏,NULL,NA,NA,yes
1,1,9,updating,cn,3,4,师,公,NULL,NA,NA,yes
1,1,9,retrieval,cn,1,1,龙,孙,孙,TRUE,2928.7000002861023,yes
1,1,9,retrieval,cn,2,4,师,公,师,FALSE,8774.5,yes
1,1,9,retrieval,cn,3,0,叹,叹,叹,TRUE,2268.5,no
1,1,9,retrieval,cn,4,2,王,王,王,TRUE,1987.8000001907349,no
1,1,9,retrieval,cn,5,5,那,乏,龙,FALSE,2534.5,yes
1,1,9,retrieval,cn,6,3,艺,艺,艺,TRUE,8326.699999809265,no
1,1,9,debrief,cn,NA,NA,NA,NA,NULL,NA,NA,NA
1,1,10,memory,cn,1,0,汗,NA,NULL,NA,NA,NA
1,1,10,memory,cn,2,1,只,NA,NULL,NA,NA,NA
1,1,10,memory,cn,3,2,另,NA,NULL,NA,NA,NA
1,1,10,memory,cn,4,3,业,NA,NULL,NA,NA,NA
1,1,10,memory,cn,5,4,扑,NA,NULL,NA,NA,NA
1,1,10,memory,cn,6,5,少,NA,NULL,NA,NA,NA
1,1,10,updating,cn,1,2,另,自,NULL,NA,NA,yes
1,1,10,updating,cn,2,0,汗,让,NULL,NA,NA,yes
1,1,10,updating,cn,3,3,业,当,NULL,NA,NA,yes
1,1,10,retrieval,cn,1,5,少,少,少,TRUE,3268.199999809265,no
1,1,10,retrieval,cn,2,3,业,当,当,TRUE,3431.7999997138977,yes
1,1,10,retrieval,cn,3,0,汗,让,汗,FALSE,1803.0999999046326,yes
1,1,10,retrieval,cn,4,1,只,只,只,TRUE,1881.1000003814697,no
1,1,10,retrieval,cn,5,2,另,自,自,TRUE,1209,yes
1,1,10,retrieval,cn,6,4,扑,扑,扑,TRUE,3005.7999997138977,no
1,1,10,debrief,cn,NA,NA,NA,NA,NULL,NA,NA,NA
1,1,11,memory,cn,1,0,勾,NA,NULL,NA,NA,NA
1,1,11,memory,cn,2,1,寺,NA,NULL,NA,NA,NA
1,1,11,memory,cn,3,2,打,NA,NULL,NA,NA,NA
1,1,11,memory,cn,4,3,百,NA,NULL,NA,NA,NA
1,1,11,memory,cn,5,4,凶,NA,NULL,NA,NA,NA
1,1,11,memory,cn,6,5,车,NA,NULL,NA,NA,NA
1,1,11,updating,cn,1,1,寺,色,NULL,NA,NA,yes
1,1,11,updating,cn,2,5,车,旧,NULL,NA,NA,yes
1,1,11,updating,cn,3,3,百,丑,NULL,NA,NA,yes
1,1,11,retrieval,cn,1,4,凶,凶,托,FALSE,18005.599999904633,no
1,1,11,retrieval,cn,2,3,百,丑,丑,TRUE,3493.5,yes
1,1,11,retrieval,cn,3,0,勾,勾,勾,TRUE,3005.4000000953674,no
1,1,11,retrieval,cn,4,5,车,旧,丑,FALSE,5824.599999904633,yes
1,1,11,retrieval,cn,5,1,寺,色,色,TRUE,2844,yes
1,1,11,retrieval,cn,6,2,打,打,打,TRUE,2446.300000190735,no
1,1,11,debrief,cn,NA,NA,NA,NA,NULL,NA,NA,NA
1,1,12,memory,cn,1,0,考,NA,NULL,NA,NA,NA
1,1,12,memory,cn,2,1,扎,NA,NULL,NA,NA,NA
1,1,12,memory,cn,3,2,无,NA,NULL,NA,NA,NA
1,1,12,memory,cn,4,3,阵,NA,NULL,NA,NA,NA
1,1,12,memory,cn,5,4,问,NA,NULL,NA,NA,NA
1,1,12,memory,cn,6,5,升,NA,NULL,NA,NA,NA
1,1,12,updating,cn,1,2,无,主,NULL,NA,NA,yes
1,1,12,updating,cn,2,0,考,刚,NULL,NA,NA,yes
1,1,12,updating,cn,3,4,问,兆,NULL,NA,NA,yes
1,1,12,retrieval,cn,1,4,问,兆,兆,TRUE,2392.5,yes
1,1,12,retrieval,cn,2,1,扎,扎,扎,TRUE,5089.5,no
1,1,12,retrieval,cn,3,0,考,刚,刚,TRUE,4047.5999999046326,yes
1,1,12,retrieval,cn,4,5,升,升,升,TRUE,3061.699999809265,no
1,1,12,retrieval,cn,5,3,阵,阵,考,FALSE,10254.400000095367,no
1,1,12,retrieval,cn,6,2,无,主,主,TRUE,2505.199999809265,yes
1,1,12,debrief,cn,NA,NA,NA,NA,NULL,NA,NA,NA
1,1,13,memory,cn,1,0,凹,NA,NULL,NA,NA,NA
1,1,13,memory,cn,2,1,右,NA,NULL,NA,NA,NA
1,1,13,memory,cn,3,2,似,NA,NULL,NA,NA,NA
1,1,13,memory,cn,4,3,写,NA,NULL,NA,NA,NA
1,1,13,memory,cn,5,4,庆,NA,NULL,NA,NA,NA
1,1,13,memory,cn,6,5,有,NA,NULL,NA,NA,NA
1,1,13,updating,cn,1,2,似,壮,NULL,NA,NA,yes
1,1,13,updating,cn,2,3,写,羽,NULL,NA,NA,yes
1,1,13,updating,cn,3,4,庆,尖,NULL,NA,NA,yes
1,1,13,retrieval,cn,1,3,写,羽,羽,TRUE,4992.599999904633,yes
1,1,13,retrieval,cn,2,5,有,有,有,TRUE,5811.900000095367,no
1,1,13,retrieval,cn,3,1,右,右,右,TRUE,4548,no
1,1,13,retrieval,cn,4,2,似,壮,壮,TRUE,4524.199999809265,yes
1,1,13,retrieval,cn,5,4,庆,尖,尖,TRUE,2922.9000000953674,yes
1,1,13,retrieval,cn,6,0,凹,凹,凹,TRUE,1444.1999998092651,no
1,1,13,debrief,cn,NA,NA,NA,NA,NULL,NA,NA,NA
1,1,14,memory,cn,1,0,华,NA,NULL,NA,NA,NA
1,1,14,memory,cn,2,1,次,NA,NULL,NA,NA,NA
1,1,14,memory,cn,3,2,吃,NA,NULL,NA,NA,NA
1,1,14,memory,cn,4,3,论,NA,NULL,NA,NA,NA
1,1,14,memory,cn,5,4,忙,NA,NULL,NA,NA,NA
1,1,14,memory,cn,6,5,且,NA,NULL,NA,NA,NA
1,1,14,updating,cn,1,0,华,占,NULL,NA,NA,yes
1,1,14,updating,cn,2,1,次,再,NULL,NA,NA,yes
1,1,14,updating,cn,3,2,吃,斤,NULL,NA,NA,yes
1,1,14,retrieval,cn,1,1,次,再,再,TRUE,5838.099999904633,yes
1,1,14,retrieval,cn,2,3,论,论,次,FALSE,4828.39999961853,no
1,1,14,retrieval,cn,3,4,忙,忙,忙,TRUE,2238.300000190735,no
1,1,14,retrieval,cn,4,2,吃,斤,斤,TRUE,2092.300000190735,yes
1,1,14,retrieval,cn,5,5,且,且,且,TRUE,1602.5999999046326,no
1,1,14,retrieval,cn,6,0,华,占,占,TRUE,1533.3000001907349,yes
1,1,14,debrief,cn,NA,NA,NA,NA,NULL,NA,NA,NA
1,1,15,memory,cn,1,0,冬,NA,NULL,NA,NA,NA
1,1,15,memory,cn,2,1,约,NA,NULL,NA,NA,NA
1,1,15,memory,cn,3,2,欢,NA,NULL,NA,NA,NA
1,1,15,memory,cn,4,3,曰,NA,NULL,NA,NA,NA
1,1,15,memory,cn,5,4,办,NA,NULL,NA,NA,NA
1,1,15,memory,cn,6,5,众,NA,NULL,NA,NA,NA
1,1,15,updating,cn,1,2,欢,池,NULL,NA,NA,yes
1,1,15,updating,cn,2,3,曰,电,NULL,NA,NA,yes
1,1,15,updating,cn,3,4,办,开,NULL,NA,NA,yes
1,1,15,retrieval,cn,1,5,众,众,众,TRUE,4889.299999713898,no
1,1,15,retrieval,cn,2,2,欢,池,池,TRUE,2965.699999809265,yes
1,1,15,retrieval,cn,3,0,冬,冬,冬,TRUE,1799.3000001907349,no
1,1,15,retrieval,cn,4,4,办,开,开,TRUE,3570.5,yes
1,1,15,retrieval,cn,5,3,曰,电,电,TRUE,2749.7000002861023,yes
1,1,15,retrieval,cn,6,1,约,约,约,TRUE,2391.199999809265,no
1,1,15,debrief,cn,NA,NA,NA,NA,NULL,NA,NA,NA
1,1,16,memory,cn,1,0,危,NA,NULL,NA,NA,NA
1,1,16,memory,cn,2,1,仓,NA,NULL,NA,NA,NA
1,1,16,memory,cn,3,2,尘,NA,NULL,NA,NA,NA
1,1,16,memory,cn,4,3,气,NA,NULL,NA,NA,NA
1,1,16,memory,cn,5,4,岁,NA,NULL,NA,NA,NA
1,1,16,memory,cn,6,5,过,NA,NULL,NA,NA,NA
1,1,16,updating,cn,1,0,危,吗,NULL,NA,NA,yes
1,1,16,updating,cn,2,5,过,伍,NULL,NA,NA,yes
1,1,16,updating,cn,3,2,尘,汇,NULL,NA,NA,yes
1,1,16,retrieval,cn,1,1,仓,仓,仓,TRUE,1774.0999999046326,no
1,1,16,retrieval,cn,2,2,尘,汇,尘,FALSE,6346.199999809265,yes
1,1,16,retrieval,cn,3,3,气,气,气,TRUE,6958.5,no
1,1,16,retrieval,cn,4,5,过,伍,伍,TRUE,2439.9000000953674,yes
1,1,16,retrieval,cn,5,0,危,吗,吗,TRUE,1968.5,yes
1,1,16,retrieval,cn,6,4,岁,岁,岁,TRUE,2861.199999809265,no
1,1,16,debrief,cn,NA,NA,NA,NA,NULL,NA,NA,NA
1,1,17,memory,cn,1,0,对,NA,NULL,NA,NA,NA
1,1,17,memory,cn,2,1,肉,NA,NULL,NA,NA,NA
1,1,17,memory,cn,3,2,收,NA,NULL,NA,NA,NA
1,1,17,memory,cn,4,3,甲,NA,NULL,NA,NA,NA
1,1,17,memory,cn,5,4,卡,NA,NULL,NA,NA,NA
1,1,17,memory,cn,6,5,吕,NA,NULL,NA,NA,NA
1,1,17,updating,cn,1,2,收,申,NULL,NA,NA,yes
1,1,17,updating,cn,2,0,对,天,NULL,NA,NA,yes
1,1,17,updating,cn,3,1,肉,仁,NULL,NA,NA,yes
1,1,17,retrieval,cn,1,5,吕,吕,吕,TRUE,3044.5,no
1,1,17,retrieval,cn,2,1,肉,仁,仁,TRUE,2961.3999996185303,yes
1,1,17,retrieval,cn,3,0,对,天,天,TRUE,1604.6999998092651,yes
1,1,17,retrieval,cn,4,3,甲,甲,甲,TRUE,1680,no
1,1,17,retrieval,cn,5,4,卡,卡,卡,TRUE,1900.2999997138977,no
1,1,17,retrieval,cn,6,2,收,申,申,TRUE,2215.300000190735,yes
1,1,17,debrief,cn,NA,NA,NA,NA,NULL,NA,NA,NA
1,1,18,memory,cn,1,0,纪,NA,NULL,NA,NA,NA
1,1,18,memory,cn,2,1,央,NA,NULL,NA,NA,NA
1,1,18,memory,cn,3,2,币,NA,NULL,NA,NA,NA
1,1,18,memory,cn,4,3,刘,NA,NULL,NA,NA,NA
1,1,18,memory,cn,5,4,伙,NA,NULL,NA,NA,NA
1,1,18,memory,cn,6,5,红,NA,NULL,NA,NA,NA
1,1,18,updating,cn,1,4,伙,厌,NULL,NA,NA,yes
1,1,18,updating,cn,2,5,红,付,NULL,NA,NA,yes
1,1,18,updating,cn,3,3,刘,牙,NULL,NA,NA,yes
1,1,18,retrieval,cn,1,3,刘,牙,牙,TRUE,2753.800000190735,yes
1,1,18,retrieval,cn,2,1,央,央,央,TRUE,2455.5,no
1,1,18,retrieval,cn,3,4,伙,厌,NULL,FALSE,NA,yes
1,1,18,retrieval,cn,4,5,红,付,付,TRUE,5702.200000286102,yes
1,1,18,retrieval,cn,5,2,币,币,币,TRUE,2120.5999999046326,no
1,1,18,retrieval,cn,6,0,纪,纪,纪,TRUE,1559.0999999046326,no
1,1,18,debrief,cn,NA,NA,NA,NA,NULL,NA,NA,NA
1,1,19,memory,cn,1,0,互,NA,NULL,NA,NA,NA
1,1,19,memory,cn,2,1,区,NA,NULL,NA,NA,NA
1,1,19,memory,cn,3,2,夹,NA,NULL,NA,NA,NA
1,1,19,memory,cn,4,3,乐,NA,NULL,NA,NA,NA
1,1,19,memory,cn,5,4,木,NA,NULL,NA,NA,NA
1,1,19,memory,cn,6,5,共,NA,NULL,NA,NA,NA
1,1,19,updating,cn,1,2,夹,迅,NULL,NA,NA,yes
1,1,19,updating,cn,2,4,木,耳,NULL,NA,NA,yes
1,1,19,updating,cn,3,3,乐,卢,NULL,NA,NA,yes
1,1,19,retrieval,cn,1,5,共,共,共,TRUE,2984.800000190735,no
1,1,19,retrieval,cn,2,2,夹,迅,迅,TRUE,3295.0999999046326,yes
1,1,19,retrieval,cn,3,4,木,耳,耳,TRUE,4022.5999999046326,yes
1,1,19,retrieval,cn,4,3,乐,卢,卢,TRUE,1180.0999999046326,yes
1,1,19,retrieval,cn,5,0,互,互,互,TRUE,2902.9000000953674,no
1,1,19,retrieval,cn,6,1,区,区,区,TRUE,1925.7000002861023,no
1,1,19,debrief,cn,NA,NA,NA,NA,NULL,NA,NA,NA
1,1,20,memory,cn,1,0,负,NA,NULL,NA,NA,NA
1,1,20,memory,cn,2,1,瓜,NA,NULL,NA,NA,NA
1,1,20,memory,cn,3,2,句,NA,NULL,NA,NA,NA
1,1,20,memory,cn,4,3,幼,NA,NULL,NA,NA,NA
1,1,20,memory,cn,5,4,韦,NA,NULL,NA,NA,NA
1,1,20,memory,cn,6,5,迈,NA,NULL,NA,NA,NA
1,1,20,updating,cn,1,2,句,他,NULL,NA,NA,yes
1,1,20,updating,cn,2,5,迈,反,NULL,NA,NA,yes
1,1,20,updating,cn,3,0,负,玉,NULL,NA,NA,yes
1,1,20,retrieval,cn,1,2,句,他,他,TRUE,6214.599999904633,yes
1,1,20,retrieval,cn,2,4,韦,韦,韦,TRUE,2562.7999997138977,no
1,1,20,retrieval,cn,3,5,迈,反,反,TRUE,3072.5,yes
1,1,20,retrieval,cn,4,1,瓜,瓜,瓜,TRUE,3809.5999999046326,no
1,1,20,retrieval,cn,5,3,幼,幼,轨,FALSE,9625.400000095367,no
1,1,20,retrieval,cn,6,0,负,玉,玉,TRUE,2340.300000190735,yes
1,1,20,debrief,cn,NA,NA,NA,NA,NULL,NA,NA,NA
1,2,1,memory,kr,1,0,판,NA,NULL,NA,NA,NA
1,2,1,memory,kr,2,1,양,NA,NULL,NA,NA,NA
1,2,1,memory,kr,3,2,성,NA,NULL,NA,NA,NA
1,2,1,memory,kr,4,3,열,NA,NULL,NA,NA,NA
1,2,1,memory,kr,5,4,현,NA,NULL,NA,NA,NA
1,2,1,memory,kr,6,5,날,NA,NULL,NA,NA,NA
1,2,1,updating,kr,1,3,열,와,NULL,NA,NA,yes
1,2,1,updating,kr,2,4,현,응,NULL,NA,NA,yes
1,2,1,updating,kr,3,1,양,병,NULL,NA,NA,yes
1,2,1,retrieval,kr,1,3,열,와,양,FALSE,4965.300000190735,yes
1,2,1,retrieval,kr,2,5,날,날,와,FALSE,3282.0999999046326,no
1,2,1,retrieval,kr,3,4,현,응,응,TRUE,2341,yes
1,2,1,retrieval,kr,4,2,성,성,열,FALSE,6297,no
1,2,1,retrieval,kr,5,1,양,병,현,FALSE,4666.299999713898,yes
1,2,1,retrieval,kr,6,0,판,판,주,FALSE,2151.0999999046326,no
1,2,1,debrief,kr,NA,NA,NA,NA,NULL,NA,NA,NA
1,2,2,memory,kr,1,0,장,NA,NULL,NA,NA,NA
1,2,2,memory,kr,2,1,맞,NA,NULL,NA,NA,NA
1,2,2,memory,kr,3,2,과,NA,NULL,NA,NA,NA
1,2,2,memory,kr,4,3,란,NA,NULL,NA,NA,NA
1,2,2,memory,kr,5,4,법,NA,NULL,NA,NA,NA
1,2,2,memory,kr,6,5,쩔,NA,NULL,NA,NA,NA
1,2,2,updating,kr,1,0,장,월,NULL,NA,NA,yes
1,2,2,updating,kr,2,5,쩔,포,NULL,NA,NA,yes
1,2,2,updating,kr,3,3,란,맡,NULL,NA,NA,yes
1,2,2,retrieval,kr,1,0,장,월,월,TRUE,5782,yes
1,2,2,retrieval,kr,2,3,란,맡,맑,FALSE,11029.599999904633,yes
1,2,2,retrieval,kr,3,2,과,과,철,FALSE,6098.39999961853,no
1,2,2,retrieval,kr,4,1,맞,맞,익,FALSE,6594.199999809265,no
1,2,2,retrieval,kr,5,4,법,법,맞,FALSE,1746.0999999046326,no
1,2,2,retrieval,kr,6,5,쩔,포,포,TRUE,2678.2000002861023,yes
1,2,2,debrief,kr,NA,NA,NA,NA,NULL,NA,NA,NA
1,2,3,memory,kr,1,0,쓰,NA,NULL,NA,NA,NA
1,2,3,memory,kr,2,1,석,NA,NULL,NA,NA,NA
1,2,3,memory,kr,3,2,디,NA,NULL,NA,NA,NA
1,2,3,memory,kr,4,3,벌,NA,NULL,NA,NA,NA
1,2,3,memory,kr,5,4,것,NA,NULL,NA,NA,NA
1,2,3,memory,kr,6,5,수,NA,NULL,NA,NA,NA
1,2,3,updating,kr,1,5,수,탄,NULL,NA,NA,yes
1,2,3,updating,kr,2,1,석,뿜,NULL,NA,NA,yes
1,2,3,updating,kr,3,3,벌,징,NULL,NA,NA,yes
1,2,3,retrieval,kr,1,5,수,탄,탄,TRUE,3691.5999999046326,yes
1,2,3,retrieval,kr,2,1,석,뿜,뿜,TRUE,1546,yes
1,2,3,retrieval,kr,3,2,디,디,타,FALSE,5336.800000190735,no
1,2,3,retrieval,kr,4,4,것,것,것,TRUE,2607.8999996185303,no
1,2,3,retrieval,kr,5,3,벌,징,급,FALSE,2320.7000002861023,yes
1,2,3,retrieval,kr,6,0,쓰,쓰,쓰,TRUE,3689.9000000953674,no
1,2,3,debrief,kr,NA,NA,NA,NA,NULL,NA,NA,NA
1,2,4,memory,kr,1,0,한,NA,NULL,NA,NA,NA
1,2,4,memory,kr,2,1,긴,NA,NULL,NA,NA,NA
1,2,4,memory,kr,3,2,의,NA,NULL,NA,NA,NA
1,2,4,memory,kr,4,3,불,NA,NULL,NA,NA,NA
1,2,4,memory,kr,5,4,닌,NA,NULL,NA,NA,NA
1,2,4,memory,kr,6,5,낙,NA,NULL,NA,NA,NA
1,2,4,updating,kr,1,1,긴,개,NULL,NA,NA,yes
1,2,4,updating,kr,2,5,낙,음,NULL,NA,NA,yes
1,2,4,updating,kr,3,4,닌,럽,NULL,NA,NA,yes
1,2,4,retrieval,kr,1,3,불,불,의,FALSE,7574,no
1,2,4,retrieval,kr,2,0,한,한,긴,FALSE,5345.099999904633,no
1,2,4,retrieval,kr,3,5,낙,음,NULL,FALSE,NA,yes
1,2,4,retrieval,kr,4,4,닌,럽,긴,FALSE,2538.5,yes
1,2,4,retrieval,kr,5,1,긴,개,음,FALSE,2798.199999809265,yes
1,2,4,retrieval,kr,6,2,의,의,궈,FALSE,1463.1999998092651,no
1,2,4,debrief,kr,NA,NA,NA,NA,NULL,NA,NA,NA
1,2,5,memory,kr,1,0,말,NA,NULL,NA,NA,NA
1,2,5,memory,kr,2,1,간,NA,NULL,NA,NA,NA
1,2,5,memory,kr,3,2,일,NA,NULL,NA,NA,NA
1,2,5,memory,kr,4,3,강,NA,NULL,NA,NA,NA
1,2,5,memory,kr,5,4,만,NA,NULL,NA,NA,NA
1,2,5,memory,kr,6,5,줄,NA,NULL,NA,NA,NA
1,2,5,updating,kr,1,5,줄,각,NULL,NA,NA,yes
1,2,5,updating,kr,2,4,만,환,NULL,NA,NA,yes
1,2,5,updating,kr,3,0,말,생,NULL,NA,NA,yes
1,2,5,retrieval,kr,1,2,일,일,는,FALSE,9513.400000095367,no
1,2,5,retrieval,kr,2,1,간,간,겠,FALSE,1257.0999999046326,no
1,2,5,retrieval,kr,3,3,강,강,말,FALSE,984.5,no
1,2,5,retrieval,kr,4,4,만,환,환,TRUE,1177.3000001907349,yes
1,2,5,retrieval,kr,5,0,말,생,극,FALSE,863.7999997138977,yes
1,2,5,retrieval,kr,6,5,줄,각,간,FALSE,1598.5999999046326,yes
1,2,5,debrief,kr,NA,NA,NA,NA,NULL,NA,NA,NA
1,2,6,memory,kr,1,0,보,NA,NULL,NA,NA,NA
1,2,6,memory,kr,2,1,럼,NA,NULL,NA,NA,NA
1,2,6,memory,kr,3,2,가,NA,NULL,NA,NA,NA
1,2,6,memory,kr,4,3,픔,NA,NULL,NA,NA,NA
1,2,6,memory,kr,5,4,민,NA,NULL,NA,NA,NA
1,2,6,memory,kr,6,5,엄,NA,NULL,NA,NA,NA
1,2,6,updating,kr,1,2,가,표,NULL,NA,NA,yes
1,2,6,updating,kr,2,3,픔,최,NULL,NA,NA,yes
1,2,6,updating,kr,3,0,보,중,NULL,NA,NA,yes
1,2,6,retrieval,kr,1,0,보,중,중,TRUE,1856.1999998092651,yes
1,2,6,retrieval,kr,2,1,럼,럼,엄,FALSE,5988.900000095367,no
1,2,6,retrieval,kr,3,4,민,민,최,FALSE,4968.900000095367,no
1,2,6,retrieval,kr,4,3,픔,최,숙,FALSE,1761.2999997138977,yes
1,2,6,retrieval,kr,5,2,가,표,표,TRUE,2926.5999999046326,yes
1,2,6,retrieval,kr,6,5,엄,엄,픔,FALSE,2339.5,no
1,2,6,debrief,kr,NA,NA,NA,NA,NULL,NA,NA,NA
1,2,7,memory,kr,1,0,튜,NA,NULL,NA,NA,NA
1,2,7,memory,kr,2,1,년,NA,NULL,NA,NA,NA
1,2,7,memory,kr,3,2,참,NA,NULL,NA,NA,NA
1,2,7,memory,kr,4,3,들,NA,NULL,NA,NA,NA
1,2,7,memory,kr,5,4,당,NA,NULL,NA,NA,NA
1,2,7,memory,kr,6,5,능,NA,NULL,NA,NA,NA
1,2,7,updating,kr,1,5,능,어,NULL,NA,NA,yes
1,2,7,updating,kr,2,0,튜,검,NULL,NA,NA,yes
1,2,7,updating,kr,3,2,참,순,NULL,NA,NA,yes
1,2,7,retrieval,kr,1,2,참,순,순,TRUE,4981.200000286102,yes
1,2,7,retrieval,kr,2,4,당,당,들,FALSE,2513.5,no
1,2,7,retrieval,kr,3,3,들,들,당,FALSE,2796.800000190735,no
1,2,7,retrieval,kr,4,0,튜,검,어,FALSE,2967.199999809265,yes
1,2,7,retrieval,kr,5,1,년,년,검,FALSE,3200.3999996185303,no
1,2,7,retrieval,kr,6,5,능,어,능,FALSE,2391.7000002861023,yes
1,2,7,debrief,kr,NA,NA,NA,NA,NULL,NA,NA,NA
1,2,8,memory,kr,1,0,혈,NA,NULL,NA,NA,NA
1,2,8,memory,kr,2,1,식,NA,NULL,NA,NA,NA
1,2,8,memory,kr,3,2,증,NA,NULL,NA,NA,NA
1,2,8,memory,kr,4,3,높,NA,NULL,NA,NA,NA
1,2,8,memory,kr,5,4,획,NA,NULL,NA,NA,NA
1,2,8,memory,kr,6,5,결,NA,NULL,NA,NA,NA
1,2,8,updating,kr,1,2,증,국,NULL,NA,NA,yes
1,2,8,updating,kr,2,4,획,부,NULL,NA,NA,yes
1,2,8,updating,kr,3,1,식,경,NULL,NA,NA,yes
1,2,8,retrieval,kr,1,4,획,부,부,TRUE,2640.5999999046326,yes
1,2,8,retrieval,kr,2,3,높,높,듯,FALSE,4417.300000190735,no
1,2,8,retrieval,kr,3,5,결,결,식,FALSE,4127.5,no
1,2,8,retrieval,kr,4,1,식,경,국,FALSE,4466.900000095367,yes
1,2,8,retrieval,kr,5,2,증,국,높,FALSE,3522.5,yes
1,2,8,retrieval,kr,6,0,혈,혈,혈,TRUE,1746.0999999046326,no
1,2,8,debrief,kr,NA,NA,NA,NA,NULL,NA,NA,NA
1,2,9,memory,kr,1,0,휴,NA,NULL,NA,NA,NA
1,2,9,memory,kr,2,1,빅,NA,NULL,NA,NA,NA
1,2,9,memory,kr,3,2,은,NA,NULL,NA,NA,NA
1,2,9,memory,kr,4,3,본,NA,NULL,NA,NA,NA
1,2,9,memory,kr,5,4,세,NA,NULL,NA,NA,NA
1,2,9,memory,kr,6,5,밝,NA,NULL,NA,NA,NA
1,2,9,updating,kr,1,3,본,니,NULL,NA,NA,yes
1,2,9,updating,kr,2,2,은,혀,NULL,NA,NA,yes
1,2,9,updating,kr,3,4,세,관,NULL,NA,NA,yes
1,2,9,retrieval,kr,1,5,밝,밝,밝,TRUE,4048.5,no
1,2,9,retrieval,kr,2,1,빅,빅,본,FALSE,4274.300000190735,no
1,2,9,retrieval,kr,3,2,은,혀,니,FALSE,4453.199999809265,yes
1,2,9,retrieval,kr,4,0,휴,휴,세,FALSE,6325.200000286102,no
1,2,9,retrieval,kr,5,4,세,관,휴,FALSE,1603.2000002861023,yes
1,2,9,retrieval,kr,6,3,본,니,휴,FALSE,777.2000002861023,yes
1,2,9,debrief,kr,NA,NA,NA,NA,NULL,NA,NA,NA
1,2,10,memory,kr,1,0,입,NA,NULL,NA,NA,NA
1,2,10,memory,kr,2,1,율,NA,NULL,NA,NA,NA
1,2,10,memory,kr,3,2,막,NA,NULL,NA,NA,NA
1,2,10,memory,kr,4,3,쓸,NA,NULL,NA,NA,NA
1,2,10,memory,kr,5,4,론,NA,NULL,NA,NA,NA
1,2,10,memory,kr,6,5,터,NA,NULL,NA,NA,NA
1,2,10,updating,kr,1,4,론,호,NULL,NA,NA,yes
1,2,10,updating,kr,2,1,율,덜,NULL,NA,NA,yes
1,2,10,updating,kr,3,3,쓸,었,NULL,NA,NA,yes
1,2,10,retrieval,kr,1,3,쓸,었,었,TRUE,3490.5,yes
1,2,10,retrieval,kr,2,1,율,덜,덜,TRUE,4254.599999904633,yes
1,2,10,retrieval,kr,3,2,막,막,막,TRUE,6543.900000095367,no
1,2,10,retrieval,kr,4,5,터,터,터,TRUE,2137.5,no
1,2,10,retrieval,kr,5,4,론,호,억,FALSE,2344.5999999046326,yes
1,2,10,retrieval,kr,6,0,입,입,율,FALSE,2972.2999997138977,no
1,2,10,debrief,kr,NA,NA,NA,NA,NULL,NA,NA,NA
1,2,11,memory,kr,1,0,넘,NA,NULL,NA,NA,NA
1,2,11,memory,kr,2,1,륙,NA,NULL,NA,NA,NA
1,2,11,memory,kr,3,2,름,NA,NULL,NA,NA,NA
1,2,11,memory,kr,4,3,뜨,NA,NULL,NA,NA,NA
1,2,11,memory,kr,5,4,서,NA,NULL,NA,NA,NA
1,2,11,memory,kr,6,5,면,NA,NULL,NA,NA,NA
1,2,11,updating,kr,1,3,뜨,던,NULL,NA,NA,yes
1,2,11,updating,kr,2,1,륙,씨,NULL,NA,NA,yes
1,2,11,updating,kr,3,0,넘,찰,NULL,NA,NA,yes
1,2,11,retrieval,kr,1,4,서,서,넘,FALSE,2828.199999809265,no
1,2,11,retrieval,kr,2,1,륙,씨,씨,TRUE,7972.800000190735,yes
1,2,11,retrieval,kr,3,5,면,면,변,FALSE,6492.599999904633,no
1,2,11,retrieval,kr,4,3,뜨,던,뜨,FALSE,2478.7000002861023,yes
1,2,11,retrieval,kr,5,2,름,름,낼,FALSE,3575.300000190735,no
1,2,11,retrieval,kr,6,0,넘,찰,천,FALSE,1195.5,yes
1,2,11,debrief,kr,NA,NA,NA,NA,NULL,NA,NA,NA
1,2,12,memory,kr,1,0,패,NA,NULL,NA,NA,NA
1,2,12,memory,kr,2,1,택,NA,NULL,NA,NA,NA
1,2,12,memory,kr,3,2,즐,NA,NULL,NA,NA,NA
1,2,12,memory,kr,4,3,같,NA,NULL,NA,NA,NA
1,2,12,memory,kr,5,4,때,NA,NULL,NA,NA,NA
1,2,12,memory,kr,6,5,렇,NA,NULL,NA,NA,NA
1,2,12,updating,kr,1,0,패,못,NULL,NA,NA,yes
1,2,12,updating,kr,2,4,때,떠,NULL,NA,NA,yes
1,2,12,updating,kr,3,1,택,학,NULL,NA,NA,yes
1,2,12,retrieval,kr,1,5,렇,렇,같,FALSE,3621.7000002861023,no
1,2,12,retrieval,kr,2,0,패,못,때,FALSE,7637.200000286102,yes
1,2,12,retrieval,kr,3,2,즐,즐,완,FALSE,2361.5999999046326,no
1,2,12,retrieval,kr,4,1,택,학,태,FALSE,2290.5,yes
1,2,12,retrieval,kr,5,3,같,같,떠,FALSE,5511,no
1,2,12,retrieval,kr,6,4,때,떠,렇,FALSE,1933.5,yes
1,2,12,debrief,kr,NA,NA,NA,NA,NULL,NA,NA,NA
1,2,13,memory,kr,1,0,계,NA,NULL,NA,NA,NA
1,2,13,memory,kr,2,1,뒤,NA,NULL,NA,NA,NA
1,2,13,memory,kr,3,2,질,NA,NULL,NA,NA,NA
1,2,13,memory,kr,4,3,여,NA,NULL,NA,NA,NA
1,2,13,memory,kr,5,4,곳,NA,NULL,NA,NA,NA
1,2,13,memory,kr,6,5,담,NA,NULL,NA,NA,NA
1,2,13,updating,kr,1,1,뒤,독,NULL,NA,NA,yes
1,2,13,updating,kr,2,4,곳,북,NULL,NA,NA,yes
1,2,13,updating,kr,3,0,계,묻,NULL,NA,NA,yes
1,2,13,retrieval,kr,1,3,여,여,곳,FALSE,6516.200000286102,no
1,2,13,retrieval,kr,2,4,곳,북,북,TRUE,6300.5,yes
1,2,13,retrieval,kr,3,5,담,담,계,FALSE,2812.5,no
1,2,13,retrieval,kr,4,1,뒤,독,묻,FALSE,5562.099999904633,yes
1,2,13,retrieval,kr,5,2,질,질,여,FALSE,5170.199999809265,no
1,2,13,retrieval,kr,6,0,계,묻,담,FALSE,4931.199999809265,yes
1,2,13,debrief,kr,NA,NA,NA,NA,NULL,NA,NA,NA
1,2,14,memory,kr,1,0,찬,NA,NULL,NA,NA,NA
1,2,14,memory,kr,2,1,았,NA,NULL,NA,NA,NA
1,2,14,memory,kr,3,2,재,NA,NULL,NA,NA,NA
1,2,14,memory,kr,4,3,든,NA,NULL,NA,NA,NA
1,2,14,memory,kr,5,4,둘,NA,NULL,NA,NA,NA
1,2,14,memory,kr,6,5,할,NA,NULL,NA,NA,NA
1,2,14,updating,kr,1,1,았,전,NULL,NA,NA,yes
1,2,14,updating,kr,2,0,찬,외,NULL,NA,NA,yes
1,2,14,updating,kr,3,3,든,통,NULL,NA,NA,yes
1,2,14,retrieval,kr,1,0,찬,외,찬,FALSE,3636.6000003814697,yes
1,2,14,retrieval,kr,2,2,재,재,둘,FALSE,4604,no
1,2,14,retrieval,kr,3,5,할,할,았,FALSE,5412.599999904633,no
1,2,14,retrieval,kr,4,4,둘,둘,실,FALSE,3281.300000190735,no
1,2,14,retrieval,kr,5,1,았,전,외,FALSE,1570.6999998092651,yes
1,2,14,retrieval,kr,6,3,든,통,통,TRUE,1176.1999998092651,yes
1,2,14,debrief,kr,NA,NA,NA,NA,NULL,NA,NA,NA
1,2,15,memory,kr,1,0,난,NA,NULL,NA,NA,NA
1,2,15,memory,kr,2,1,미,NA,NULL,NA,NA,NA
1,2,15,memory,kr,3,2,너,NA,NULL,NA,NA,NA
1,2,15,memory,kr,4,3,연,NA,NULL,NA,NA,NA
1,2,15,memory,kr,5,4,컨,NA,NULL,NA,NA,NA
1,2,15,memory,kr,6,5,승,NA,NULL,NA,NA,NA
1,2,15,updating,kr,1,3,연,사,NULL,NA,NA,yes
1,2,15,updating,kr,2,2,너,두,NULL,NA,NA,yes
1,2,15,updating,kr,3,5,승,출,NULL,NA,NA,yes
1,2,15,retrieval,kr,1,0,난,난,난,TRUE,5841.39999961853,no
1,2,15,retrieval,kr,2,1,미,미,연,FALSE,6091.199999809265,no
1,2,15,retrieval,kr,3,2,너,두,승,FALSE,5656,yes
1,2,15,retrieval,kr,4,3,연,사,두,FALSE,2262.2000002861023,yes
1,2,15,retrieval,kr,5,5,승,출,출,TRUE,1731.4000000953674,yes
1,2,15,retrieval,kr,6,4,컨,컨,이,FALSE,1360.1999998092651,no
1,2,15,debrief,kr,NA,NA,NA,NA,NULL,NA,NA,NA
1,2,16,memory,kr,1,0,분,NA,NULL,NA,NA,NA
1,2,16,memory,kr,2,1,배,NA,NULL,NA,NA,NA
1,2,16,memory,kr,3,2,무,NA,NULL,NA,NA,NA
1,2,16,memory,kr,4,3,축,NA,NULL,NA,NA,NA
1,2,16,memory,kr,5,4,원,NA,NULL,NA,NA,NA
1,2,16,memory,kr,6,5,범,NA,NULL,NA,NA,NA
1,2,16,updating,kr,1,0,분,까,NULL,NA,NA,yes
1,2,16,updating,kr,2,1,배,준,NULL,NA,NA,yes
1,2,16,updating,kr,3,5,범,폐,NULL,NA,NA,yes
1,2,16,retrieval,kr,1,5,범,폐,폐,TRUE,3643.199999809265,yes
1,2,16,retrieval,kr,2,4,원,원,원,TRUE,3739.0999999046326,no
1,2,16,retrieval,kr,3,2,무,무,준,FALSE,3203.5999999046326,no
1,2,16,retrieval,kr,4,3,축,축,데,FALSE,2468.800000190735,no
1,2,16,retrieval,kr,5,0,분,까,까,TRUE,1444.3000001907349,yes
1,2,16,retrieval,kr,6,1,배,준,분,FALSE,1615.0999999046326,yes
1,2,16,debrief,kr,NA,NA,NA,NA,NULL,NA,NA,NA
1,2,17,memory,kr,1,0,였,NA,NULL,NA,NA,NA
1,2,17,memory,kr,2,1,측,NA,NULL,NA,NA,NA
1,2,17,memory,kr,3,2,직,NA,NULL,NA,NA,NA
1,2,17,memory,kr,4,3,몸,NA,NULL,NA,NA,NA
1,2,17,memory,kr,5,4,물,NA,NULL,NA,NA,NA
1,2,17,memory,kr,6,5,고,NA,NULL,NA,NA,NA
1,2,17,updating,kr,1,4,물,첫,NULL,NA,NA,yes
1,2,17,updating,kr,2,2,직,뿌,NULL,NA,NA,yes
1,2,17,updating,kr,3,5,고,체,NULL,NA,NA,yes
1,2,17,retrieval,kr,1,2,직,뿌,뿌,TRUE,3435.699999809265,yes
1,2,17,retrieval,kr,2,4,물,첫,측,FALSE,8821.5,yes
1,2,17,retrieval,kr,3,5,고,체,첫,FALSE,9171.099999904633,yes
1,2,17,retrieval,kr,4,3,몸,몸,몸,TRUE,1381.4000000953674,no
1,2,17,retrieval,kr,5,0,였,였,바,FALSE,4348.900000095367,no
1,2,17,retrieval,kr,6,1,측,측,됐,FALSE,2669.6000003814697,no
1,2,17,debrief,kr,NA,NA,NA,NA,NULL,NA,NA,NA
1,2,18,memory,kr,1,0,집,NA,NULL,NA,NA,NA
1,2,18,memory,kr,2,1,조,NA,NULL,NA,NA,NA
1,2,18,memory,kr,3,2,잡,NA,NULL,NA,NA,NA
1,2,18,memory,kr,4,3,삼,NA,NULL,NA,NA,NA
1,2,18,memory,kr,5,4,속,NA,NULL,NA,NA,NA
1,2,18,memory,kr,6,5,에,NA,NULL,NA,NA,NA
1,2,18,updating,kr,1,2,잡,워,NULL,NA,NA,yes
1,2,18,updating,kr,2,3,삼,향,NULL,NA,NA,yes
1,2,18,updating,kr,3,4,속,지,NULL,NA,NA,yes
1,2,18,retrieval,kr,1,0,집,집,조,FALSE,3134,no
1,2,18,retrieval,kr,2,1,조,조,삼,FALSE,4596.599999904633,no
1,2,18,retrieval,kr,3,5,에,에,잡,FALSE,5419.099999904633,no
1,2,18,retrieval,kr,4,2,잡,워,향,FALSE,3644.800000190735,yes
1,2,18,retrieval,kr,5,3,삼,향,워,FALSE,2557.9000000953674,yes
1,2,18,retrieval,kr,6,4,속,지,역,FALSE,2021.0999999046326,yes
1,2,18,debrief,kr,NA,NA,NA,NA,NULL,NA,NA,NA
1,2,19,memory,kr,1,0,리,NA,NULL,NA,NA,NA
1,2,19,memory,kr,2,1,냉,NA,NULL,NA,NA,NA
1,2,19,memory,kr,3,2,소,NA,NULL,NA,NA,NA
1,2,19,memory,kr,4,3,더,NA,NULL,NA,NA,NA
1,2,19,memory,kr,5,4,용,NA,NULL,NA,NA,NA
1,2,19,memory,kr,6,5,탈,NA,NULL,NA,NA,NA
1,2,19,updating,kr,1,2,소,버,NULL,NA,NA,yes
1,2,19,updating,kr,2,3,더,않,NULL,NA,NA,yes
1,2,19,updating,kr,3,5,탈,뜻,NULL,NA,NA,yes
1,2,19,retrieval,kr,1,4,용,용,용,TRUE,2906.199999809265,no
1,2,19,retrieval,kr,2,0,리,리,암,FALSE,7323.5,no
1,2,19,retrieval,kr,3,2,소,버,않,FALSE,4958.599999904633,yes
1,2,19,retrieval,kr,4,5,탈,뜻,탈,FALSE,4049.300000190735,yes
1,2,19,retrieval,kr,5,3,더,않,버,FALSE,2811.9000000953674,yes
1,2,19,retrieval,kr,6,1,냉,냉,더,FALSE,2718.2000002861023,no
1,2,19,debrief,kr,NA,NA,NA,NA,NULL,NA,NA,NA
1,2,20,memory,kr,1,0,웠,NA,NULL,NA,NA,NA
1,2,20,memory,kr,2,1,책,NA,NULL,NA,NA,NA
1,2,20,memory,kr,3,2,움,NA,NULL,NA,NA,NA
1,2,20,memory,kr,4,3,족,NA,NULL,NA,NA,NA
1,2,20,memory,kr,5,4,안,NA,NULL,NA,NA,NA
1,2,20,memory,kr,6,5,오,NA,NULL,NA,NA,NA
1,2,20,updating,kr,1,2,움,띤,NULL,NA,NA,yes
1,2,20,updating,kr,2,5,오,운,NULL,NA,NA,yes
1,2,20,updating,kr,3,0,웠,절,NULL,NA,NA,yes
1,2,20,retrieval,kr,1,5,오,운,운,TRUE,5837.099999904633,yes
1,2,20,retrieval,kr,2,2,움,띤,띤,TRUE,5054.799999713898,yes
1,2,20,retrieval,kr,3,1,책,책,족,FALSE,4574.400000095367,no
1,2,20,retrieval,kr,4,3,족,족,히,FALSE,7646.400000095367,no
1,2,20,retrieval,kr,5,0,웠,절,띤,FALSE,2626.5,yes
1,2,20,retrieval,kr,6,4,안,안,절,FALSE,1684,no
1,2,20,debrief,kr,NA,NA,NA,NA,NULL,NA,NA,NA
3,1,1,memory,kr,1,0,치,NA,NULL,NA,NA,NA
3,1,1,memory,kr,2,1,각,NA,NULL,NA,NA,NA
3,1,1,memory,kr,3,2,렇,NA,NULL,NA,NA,NA
3,1,1,memory,kr,4,3,컫,NA,NULL,NA,NA,NA
3,1,1,memory,kr,5,4,옮,NA,NULL,NA,NA,NA
3,1,1,memory,kr,6,5,에,NA,NULL,NA,NA,NA
3,1,1,updating,kr,1,4,옮,능,NULL,NA,NA,yes
3,1,1,updating,kr,2,1,각,없,NULL,NA,NA,yes
3,1,1,updating,kr,3,0,치,예,NULL,NA,NA,yes
3,1,1,retrieval,kr,1,0,치,예,예,TRUE,2704.8000000715256,yes
3,1,1,retrieval,kr,2,4,옮,능,능,TRUE,6519.700000047684,yes
3,1,1,retrieval,kr,3,5,에,에,없,FALSE,4386,no
3,1,1,retrieval,kr,4,2,렇,렇,렇,TRUE,14494.799999952316,no
3,1,1,retrieval,kr,5,1,각,없,출,FALSE,5738.400000095367,yes
3,1,1,retrieval,kr,6,3,컫,컫,컫,TRUE,4540.800000071526,no
3,1,1,debrief,kr,NA,NA,NA,NA,NULL,NA,NA,NA
3,1,2,memory,kr,1,0,률,NA,NULL,NA,NA,NA
3,1,2,memory,kr,2,1,넘,NA,NULL,NA,NA,NA
3,1,2,memory,kr,3,2,겠,NA,NULL,NA,NA,NA
3,1,2,memory,kr,4,3,로,NA,NULL,NA,NA,NA
3,1,2,memory,kr,5,4,역,NA,NULL,NA,NA,NA
3,1,2,memory,kr,6,5,모,NA,NULL,NA,NA,NA
3,1,2,updating,kr,1,3,로,닌,NULL,NA,NA,yes
3,1,2,updating,kr,2,2,겠,규,NULL,NA,NA,yes
3,1,2,updating,kr,3,1,넘,혔,NULL,NA,NA,yes
3,1,2,retrieval,kr,1,3,로,닌,닌,TRUE,2738,yes
3,1,2,retrieval,kr,2,0,률,률,모,FALSE,11303.600000023842,no
3,1,2,retrieval,kr,3,2,겠,규,드,FALSE,9161.799999952316,yes
3,1,2,retrieval,kr,4,5,모,모,역,FALSE,6327,no
3,1,2,retrieval,kr,5,1,넘,혔,혔,TRUE,4613.399999976158,yes
3,1,2,retrieval,kr,6,4,역,역,률,FALSE,4014.600000023842,no
3,1,2,debrief,kr,NA,NA,NA,NA,NULL,NA,NA,NA
3,1,3,memory,kr,1,0,맞,NA,NULL,NA,NA,NA
3,1,3,memory,kr,2,1,바,NA,NULL,NA,NA,NA
3,1,3,memory,kr,3,2,루,NA,NULL,NA,NA,NA
3,1,3,memory,kr,4,3,은,NA,NULL,NA,NA,NA
3,1,3,memory,kr,5,4,말,NA,NULL,NA,NA,NA
3,1,3,memory,kr,6,5,포,NA,NULL,NA,NA,NA
3,1,3,updating,kr,1,2,루,별,NULL,NA,NA,yes
3,1,3,updating,kr,2,5,포,데,NULL,NA,NA,yes
3,1,3,updating,kr,3,0,맞,든,NULL,NA,NA,yes
3,1,3,retrieval,kr,1,0,맞,든,든,TRUE,1515,yes
3,1,3,retrieval,kr,2,3,은,은,은,TRUE,10762.5,no
3,1,3,retrieval,kr,3,4,말,말,은,FALSE,3908.100000023842,no
3,1,3,retrieval,kr,4,2,루,별,루,FALSE,4718.700000047684,yes
3,1,3,retrieval,kr,5,1,바,바,NULL,FALSE,NA,no
3,1,3,retrieval,kr,6,5,포,데,말,FALSE,284.2999999523163,yes
3,1,3,debrief,kr,NA,NA,NA,NA,NULL,NA,NA,NA
3,1,4,memory,kr,1,0,묵,NA,NULL,NA,NA,NA
3,1,4,memory,kr,2,1,병,NA,NULL,NA,NA,NA
3,1,4,memory,kr,3,2,려,NA,NULL,NA,NA,NA
3,1,4,memory,kr,4,3,법,NA,NULL,NA,NA,NA
3,1,4,memory,kr,5,4,잡,NA,NULL,NA,NA,NA
3,1,4,memory,kr,6,5,징,NA,NULL,NA,NA,NA
3,1,4,updating,kr,1,3,법,완,NULL,NA,NA,yes
3,1,4,updating,kr,2,4,잡,차,NULL,NA,NA,yes
3,1,4,updating,kr,3,5,징,합,NULL,NA,NA,yes
3,1,4,retrieval,kr,1,3,법,완,합,FALSE,2559.7999999523163,yes
3,1,4,retrieval,kr,2,1,병,병,징,FALSE,6099.700000047684,no
3,1,4,retrieval,kr,3,2,려,려,려,TRUE,3883.6999999284744,no
3,1,4,retrieval,kr,4,5,징,합,완,FALSE,9894.300000071526,yes
3,1,4,retrieval,kr,5,0,묵,묵,금,FALSE,3843.600000023842,no
3,1,4,retrieval,kr,6,4,잡,차,법,FALSE,1843.3999999761581,yes
3,1,4,debrief,kr,NA,NA,NA,NA,NULL,NA,NA,NA
3,1,5,memory,kr,1,0,연,NA,NULL,NA,NA,NA
3,1,5,memory,kr,2,1,독,NA,NULL,NA,NA,NA
3,1,5,memory,kr,3,2,내,NA,NULL,NA,NA,NA
3,1,5,memory,kr,4,3,듯,NA,NULL,NA,NA,NA
3,1,5,memory,kr,5,4,중,NA,NULL,NA,NA,NA
3,1,5,memory,kr,6,5,명,NA,NULL,NA,NA,NA
3,1,5,updating,kr,1,3,듯,율,NULL,NA,NA,yes
3,1,5,updating,kr,2,0,연,콤,NULL,NA,NA,yes
3,1,5,updating,kr,3,4,중,지,NULL,NA,NA,yes
3,1,5,retrieval,kr,1,3,듯,율,연,FALSE,4188,yes
3,1,5,retrieval,kr,2,4,중,지,지,TRUE,1045.6000000238419,yes
3,1,5,retrieval,kr,3,2,내,내,내,TRUE,5352.300000071526,no
3,1,5,retrieval,kr,4,1,독,독,독,TRUE,2132.6999999284744,no
3,1,5,retrieval,kr,5,5,명,명,콤,FALSE,4516,no
3,1,5,retrieval,kr,6,0,연,콤,율,FALSE,10369.5,yes
3,1,5,debrief,kr,NA,NA,NA,NA,NULL,NA,NA,NA
3,1,6,memory,kr,1,0,야,NA,NULL,NA,NA,NA
3,1,6,memory,kr,2,1,씨,NA,NULL,NA,NA,NA
3,1,6,memory,kr,3,2,응,NA,NULL,NA,NA,NA
3,1,6,memory,kr,4,3,축,NA,NULL,NA,NA,NA
3,1,6,memory,kr,5,4,습,NA,NULL,NA,NA,NA
3,1,6,memory,kr,6,5,맡,NA,NULL,NA,NA,NA
3,1,6,updating,kr,1,0,야,러,NULL,NA,NA,yes
3,1,6,updating,kr,2,4,습,화,NULL,NA,NA,yes
3,1,6,updating,kr,3,1,씨,섰,NULL,NA,NA,yes
3,1,6,retrieval,kr,1,5,맡,맡,맡,TRUE,9864.600000023842,no
3,1,6,retrieval,kr,2,3,축,축,섰,FALSE,11944,no
3,1,6,retrieval,kr,3,1,씨,섰,화,FALSE,6388.5,yes
3,1,6,retrieval,kr,4,0,야,러,러,TRUE,3220.600000023842,yes
3,1,6,retrieval,kr,5,2,응,응,응,TRUE,5502.899999976158,no
3,1,6,retrieval,kr,6,4,습,화,너,FALSE,4403.700000047684,yes
3,1,6,debrief,kr,NA,NA,NA,NA,NULL,NA,NA,NA
3,1,7,memory,kr,1,0,어,NA,NULL,NA,NA,NA
3,1,7,memory,kr,2,1,빅,NA,NULL,NA,NA,NA
3,1,7,memory,kr,3,2,공,NA,NULL,NA,NA,NA
3,1,7,memory,kr,4,3,막,NA,NULL,NA,NA,NA
3,1,7,memory,kr,5,4,라,NA,NULL,NA,NA,NA
3,1,7,memory,kr,6,5,았,NA,NULL,NA,NA,NA
3,1,7,updating,kr,1,2,공,환,NULL,NA,NA,yes
3,1,7,updating,kr,2,3,막,외,NULL,NA,NA,yes
3,1,7,updating,kr,3,5,았,도,NULL,NA,NA,yes
3,1,7,retrieval,kr,1,0,어,어,외,FALSE,4488.5,no
3,1,7,retrieval,kr,2,5,았,도,두,FALSE,4527.5,yes
3,1,7,retrieval,kr,3,3,막,외,받,FALSE,3255.100000023842,yes
3,1,7,retrieval,kr,4,2,공,환,막,FALSE,10381.200000047684,yes
3,1,7,retrieval,kr,5,1,빅,빅,빅,TRUE,1496.2999999523163,no
3,1,7,retrieval,kr,6,4,라,라,즐,FALSE,1705,no
3,1,7,debrief,kr,NA,NA,NA,NA,NULL,NA,NA,NA
3,1,8,memory,kr,1,0,못,NA,NULL,NA,NA,NA
3,1,8,memory,kr,2,1,큼,NA,NULL,NA,NA,NA
3,1,8,memory,kr,3,2,처,NA,NULL,NA,NA,NA
3,1,8,memory,kr,4,3,몸,NA,NULL,NA,NA,NA
3,1,8,memory,kr,5,4,피,NA,NULL,NA,NA,NA
3,1,8,memory,kr,6,5,버,NA,NULL,NA,NA,NA
3,1,8,updating,kr,1,1,큼,죄,NULL,NA,NA,yes
3,1,8,updating,kr,2,0,못,전,NULL,NA,NA,yes
3,1,8,updating,kr,3,3,몸,면,NULL,NA,NA,yes
3,1,8,retrieval,kr,1,2,처,처,음,FALSE,14321.700000047684,no
3,1,8,retrieval,kr,2,0,못,전,못,FALSE,12916,yes
3,1,8,retrieval,kr,3,5,버,버,죄,FALSE,2747.5,no
3,1,8,retrieval,kr,4,4,피,피,처,FALSE,969.2000000476837,no
3,1,8,retrieval,kr,5,1,큼,죄,못,FALSE,9200,yes
3,1,8,retrieval,kr,6,3,몸,면,전,FALSE,2520.6999999284744,yes
3,1,8,debrief,kr,NA,NA,NA,NA,NULL,NA,NA,NA
3,1,9,memory,kr,1,0,장,NA,NULL,NA,NA,NA
3,1,9,memory,kr,2,1,가,NA,NULL,NA,NA,NA
3,1,9,memory,kr,3,2,한,NA,NULL,NA,NA,NA
3,1,9,memory,kr,4,3,변,NA,NULL,NA,NA,NA
3,1,9,memory,kr,5,4,박,NA,NULL,NA,NA,NA
3,1,9,memory,kr,6,5,국,NA,NULL,NA,NA,NA
3,1,9,updating,kr,1,2,한,월,NULL,NA,NA,yes
3,1,9,updating,kr,2,3,변,떡,NULL,NA,NA,yes
3,1,9,updating,kr,3,0,장,북,NULL,NA,NA,yes
3,1,9,retrieval,kr,1,1,가,가,북,FALSE,5003.600000023842,no
3,1,9,retrieval,kr,2,5,국,국,리,FALSE,5355.899999976158,no
3,1,9,retrieval,kr,3,4,박,박,박,TRUE,1235.8000000715256,no
3,1,9,retrieval,kr,4,2,한,월,렌,FALSE,1104.6999999284744,yes
3,1,9,retrieval,kr,5,0,장,북,향,FALSE,1186.1999999284744,yes
3,1,9,retrieval,kr,6,3,변,떡,가,FALSE,1124.6000000238419,yes
3,1,9,debrief,kr,NA,NA,NA,NA,NULL,NA,NA,NA
3,1,10,memory,kr,1,0,밟,NA,NULL,NA,NA,NA
3,1,10,memory,kr,2,1,하,NA,NULL,NA,NA,NA
3,1,10,memory,kr,3,2,꾸,NA,NULL,NA,NA,NA
3,1,10,memory,kr,4,3,집,NA,NULL,NA,NA,NA
3,1,10,memory,kr,5,4,혐,NA,NULL,NA,NA,NA
3,1,10,memory,kr,6,5,할,NA,NULL,NA,NA,NA
3,1,10,updating,kr,1,1,하,아,NULL,NA,NA,yes
3,1,10,updating,kr,2,3,집,뜻,NULL,NA,NA,yes
3,1,10,updating,kr,3,2,꾸,임,NULL,NA,NA,yes
3,1,10,retrieval,kr,1,4,혐,혐,채,FALSE,6626.200000047684,no
3,1,10,retrieval,kr,2,3,집,뜻,하,FALSE,2875.399999976158,yes
3,1,10,retrieval,kr,3,5,할,할,할,TRUE,4953.5,no
3,1,10,retrieval,kr,4,1,하,아,하,FALSE,4080.600000023842,yes
3,1,10,retrieval,kr,5,0,밟,밟,밟,TRUE,945.7999999523163,no
3,1,10,retrieval,kr,6,2,꾸,임,럼,FALSE,5643.700000047684,yes
3,1,10,debrief,kr,NA,NA,NA,NA,NULL,NA,NA,NA
3,1,11,memory,kr,1,0,뿜,NA,NULL,NA,NA,NA
3,1,11,memory,kr,2,1,범,NA,NULL,NA,NA,NA
3,1,11,memory,kr,3,2,승,NA,NULL,NA,NA,NA
3,1,11,memory,kr,4,3,적,NA,NULL,NA,NA,NA
3,1,11,memory,kr,5,4,거,NA,NULL,NA,NA,NA
3,1,11,memory,kr,6,5,또,NA,NULL,NA,NA,NA
3,1,11,updating,kr,1,2,승,긴,NULL,NA,NA,yes
3,1,11,updating,kr,2,4,거,숙,NULL,NA,NA,yes
3,1,11,updating,kr,3,0,뿜,찰,NULL,NA,NA,yes
3,1,11,retrieval,kr,1,5,또,또,당,FALSE,12384.600000023842,no
3,1,11,retrieval,kr,2,2,승,긴,자,FALSE,8212.399999976158,yes
3,1,11,retrieval,kr,3,3,적,적,였,FALSE,2853.600000023842,no
3,1,11,retrieval,kr,4,1,범,범,열,FALSE,7662.899999976158,no
3,1,11,retrieval,kr,5,4,거,숙,거,FALSE,7850.299999952316,yes
3,1,11,retrieval,kr,6,0,뿜,찰,뿜,FALSE,3454.6999999284744,yes
3,1,11,debrief,kr,NA,NA,NA,NA,NULL,NA,NA,NA
3,1,12,memory,kr,1,0,날,NA,NULL,NA,NA,NA
3,1,12,memory,kr,2,1,낙,NA,NULL,NA,NA,NA
3,1,12,memory,kr,3,2,방,NA,NULL,NA,NA,NA
3,1,12,memory,kr,4,3,따,NA,NULL,NA,NA,NA
3,1,12,memory,kr,5,4,익,NA,NULL,NA,NA,NA
3,1,12,memory,kr,6,5,천,NA,NULL,NA,NA,NA
3,1,12,updating,kr,1,0,날,며,NULL,NA,NA,yes
3,1,12,updating,kr,2,2,방,첫,NULL,NA,NA,yes
3,1,12,updating,kr,3,1,낙,엔,NULL,NA,NA,yes
3,1,12,retrieval,kr,1,4,익,익,강,FALSE,10550.700000047684,no
3,1,12,retrieval,kr,2,3,따,따,학,FALSE,1765.1000000238419,no
3,1,12,retrieval,kr,3,1,낙,엔,익,FALSE,4161.399999976158,yes
3,1,12,retrieval,kr,4,0,날,며,학,FALSE,1787.6000000238419,yes
3,1,12,retrieval,kr,5,2,방,첫,날,FALSE,3493,yes
3,1,12,retrieval,kr,6,5,천,천,강,FALSE,2632.899999976158,no
3,1,12,debrief,kr,NA,NA,NA,NA,NULL,NA,NA,NA
3,1,13,memory,kr,1,0,둘,NA,NULL,NA,NA,NA
3,1,13,memory,kr,2,1,것,NA,NULL,NA,NA,NA
3,1,13,memory,kr,3,2,띤,NA,NULL,NA,NA,NA
3,1,13,memory,kr,4,3,브,NA,NULL,NA,NA,NA
3,1,13,memory,kr,5,4,타,NA,NULL,NA,NA,NA
3,1,13,memory,kr,6,5,효,NA,NULL,NA,NA,NA
3,1,13,updating,kr,1,1,것,유,NULL,NA,NA,yes
3,1,13,updating,kr,2,4,타,세,NULL,NA,NA,yes
3,1,13,updating,kr,3,2,띤,영,NULL,NA,NA,yes
3,1,13,retrieval,kr,1,0,둘,둘,석,FALSE,8500,no
3,1,13,retrieval,kr,2,4,타,세,알,FALSE,3723,yes
3,1,13,retrieval,kr,3,1,것,유,인,FALSE,3248.6999999284744,yes
3,1,13,retrieval,kr,4,2,띤,영,세,FALSE,3401.899999976158,yes
3,1,13,retrieval,kr,5,5,효,효,유,FALSE,1306.3999999761581,no
3,1,13,retrieval,kr,6,3,브,브,효,FALSE,1670.6000000238419,no
3,1,13,debrief,kr,NA,NA,NA,NA,NULL,NA,NA,NA
3,1,14,memory,kr,1,0,줄,NA,NULL,NA,NA,NA
3,1,14,memory,kr,2,1,는,NA,NULL,NA,NA,NA
3,1,14,memory,kr,3,2,혈,NA,NULL,NA,NA,NA
3,1,14,memory,kr,4,3,직,NA,NULL,NA,NA,NA
3,1,14,memory,kr,5,4,보,NA,NULL,NA,NA,NA
3,1,14,memory,kr,6,5,단,NA,NULL,NA,NA,NA
3,1,14,updating,kr,1,0,줄,족,NULL,NA,NA,yes
3,1,14,updating,kr,2,1,는,밝,NULL,NA,NA,yes
3,1,14,updating,kr,3,2,혈,만,NULL,NA,NA,yes
3,1,14,retrieval,kr,1,3,직,직,혈,FALSE,7764.199999928474,no
3,1,14,retrieval,kr,2,0,줄,족,직,FALSE,1626.5,yes
3,1,14,retrieval,kr,3,4,보,보,밝,FALSE,2150.1999999284744,no
3,1,14,retrieval,kr,4,2,혈,만,만,TRUE,1051.2000000476837,yes
3,1,14,retrieval,kr,5,5,단,단,만,FALSE,273.3000000715256,no
3,1,14,retrieval,kr,6,1,는,밝,밝,TRUE,4361.699999928474,yes
3,1,14,debrief,kr,NA,NA,NA,NA,NULL,NA,NA,NA
3,1,15,memory,kr,1,0,참,NA,NULL,NA,NA,NA
3,1,15,memory,kr,2,1,휴,NA,NULL,NA,NA,NA
3,1,15,memory,kr,3,2,무,NA,NULL,NA,NA,NA
3,1,15,memory,kr,4,3,다,NA,NULL,NA,NA,NA
3,1,15,memory,kr,5,4,략,NA,NULL,NA,NA,NA
3,1,15,memory,kr,6,5,년,NA,NULL,NA,NA,NA
3,1,15,updating,kr,1,3,다,랑,NULL,NA,NA,yes
3,1,15,updating,kr,2,4,략,상,NULL,NA,NA,yes
3,1,15,updating,kr,3,0,참,청,NULL,NA,NA,yes
3,1,15,retrieval,kr,1,5,년,년,청,FALSE,2502.1999999284744,no
3,1,15,retrieval,kr,2,4,략,상,랑,FALSE,5324.300000071526,yes
3,1,15,retrieval,kr,3,1,휴,휴,묻,FALSE,3771.7000000476837,no
3,1,15,retrieval,kr,4,0,참,청,청,TRUE,6373.899999976158,yes
3,1,15,retrieval,kr,5,2,무,무,묻,FALSE,4041.7000000476837,no
3,1,15,retrieval,kr,6,3,다,랑,참,FALSE,8665.100000023842,yes
3,1,15,debrief,kr,NA,NA,NA,NA,NULL,NA,NA,NA
3,1,16,memory,kr,1,0,설,NA,NULL,NA,NA,NA
3,1,16,memory,kr,2,1,궈,NA,NULL,NA,NA,NA
3,1,16,memory,kr,3,2,력,NA,NULL,NA,NA,NA
3,1,16,memory,kr,4,3,권,NA,NULL,NA,NA,NA
3,1,16,memory,kr,5,4,럽,NA,NULL,NA,NA,NA
3,1,16,memory,kr,6,5,같,NA,NULL,NA,NA,NA
3,1,16,updating,kr,1,3,권,르,NULL,NA,NA,yes
3,1,16,updating,kr,2,0,설,칙,NULL,NA,NA,yes
3,1,16,updating,kr,3,5,같,된,NULL,NA,NA,yes
3,1,16,retrieval,kr,1,1,궈,궈,력,FALSE,7838.899999976158,no
3,1,16,retrieval,kr,2,4,럽,럽,럽,TRUE,5115.799999952316,no
3,1,16,retrieval,kr,3,5,같,된,님,FALSE,5937.600000023842,yes
3,1,16,retrieval,kr,4,0,설,칙,같,FALSE,8433.799999952316,yes
3,1,16,retrieval,kr,5,2,력,력,럽,FALSE,7333,no
3,1,16,retrieval,kr,6,3,권,르,고,FALSE,3869.4000000953674,yes
3,1,16,debrief,kr,NA,NA,NA,NA,NULL,NA,NA,NA
3,1,17,memory,kr,1,0,점,NA,NULL,NA,NA,NA
3,1,17,memory,kr,2,1,까,NA,NULL,NA,NA,NA
3,1,17,memory,kr,3,2,으,NA,NULL,NA,NA,NA
3,1,17,memory,kr,4,3,쇄,NA,NULL,NA,NA,NA
3,1,17,memory,kr,5,4,란,NA,NULL,NA,NA,NA
3,1,17,memory,kr,6,5,소,NA,NULL,NA,NA,NA
3,1,17,updating,kr,1,1,까,례,NULL,NA,NA,yes
3,1,17,updating,kr,2,2,으,속,NULL,NA,NA,yes
3,1,17,updating,kr,3,4,란,위,NULL,NA,NA,yes
3,1,17,retrieval,kr,1,2,으,속,속,TRUE,9183.199999928474,yes
3,1,17,retrieval,kr,2,3,쇄,쇄,운,FALSE,3365.5,no
3,1,17,retrieval,kr,3,5,소,소,례,FALSE,6956.700000047684,no
3,1,17,retrieval,kr,4,4,란,위,난,FALSE,1576,yes
3,1,17,retrieval,kr,5,0,점,점,점,TRUE,7817.899999976158,no
3,1,17,retrieval,kr,6,1,까,례,란,FALSE,6568.399999976158,yes
3,1,17,debrief,kr,NA,NA,NA,NA,NULL,NA,NA,NA
3,1,18,memory,kr,1,0,간,NA,NULL,NA,NA,NA
3,1,18,memory,kr,2,1,심,NA,NULL,NA,NA,NA
3,1,18,memory,kr,3,2,민,NA,NULL,NA,NA,NA
3,1,18,memory,kr,4,3,평,NA,NULL,NA,NA,NA
3,1,18,memory,kr,5,4,재,NA,NULL,NA,NA,NA
3,1,18,memory,kr,6,5,성,NA,NULL,NA,NA,NA
3,1,18,updating,kr,1,5,성,덜,NULL,NA,NA,yes
3,1,18,updating,kr,2,4,재,낼,NULL,NA,NA,yes
3,1,18,updating,kr,3,2,민,쉽,NULL,NA,NA,yes
3,1,18,retrieval,kr,1,0,간,간,산,FALSE,7277.299999952316,no
3,1,18,retrieval,kr,2,1,심,심,덜,FALSE,15947.199999928474,no
3,1,18,retrieval,kr,3,2,민,쉽,민,FALSE,4229.100000023842,yes
3,1,18,retrieval,kr,4,5,성,덜,간,FALSE,6764.899999976158,yes
3,1,18,retrieval,kr,5,4,재,낼,저,FALSE,11381.200000047684,yes
3,1,18,retrieval,kr,6,3,평,평,평,TRUE,3448,no
3,1,18,debrief,kr,NA,NA,NA,NA,NULL,NA,NA,NA
3,1,19,memory,kr,1,0,되,NA,NULL,NA,NA,NA
3,1,19,memory,kr,2,1,때,NA,NULL,NA,NA,NA
3,1,19,memory,kr,3,2,압,NA,NULL,NA,NA,NA
3,1,19,memory,kr,4,3,회,NA,NULL,NA,NA,NA
3,1,19,memory,kr,5,4,검,NA,NULL,NA,NA,NA
3,1,19,memory,kr,6,5,시,NA,NULL,NA,NA,NA
3,1,19,updating,kr,1,0,되,베,NULL,NA,NA,yes
3,1,19,updating,kr,2,4,검,미,NULL,NA,NA,yes
3,1,19,updating,kr,3,5,시,륙,NULL,NA,NA,yes
3,1,19,retrieval,kr,1,1,때,때,시,FALSE,4741,no
3,1,19,retrieval,kr,2,4,검,미,미,TRUE,5566.300000071526,yes
3,1,19,retrieval,kr,3,0,되,베,베,TRUE,5920.300000071526,yes
3,1,19,retrieval,kr,4,3,회,회,통,FALSE,4940.800000071526,no
3,1,19,retrieval,kr,5,5,시,륙,회,FALSE,3488.5,yes
3,1,19,retrieval,kr,6,2,압,압,름,FALSE,1309,no
3,1,19,debrief,kr,NA,NA,NA,NA,NULL,NA,NA,NA
3,1,20,memory,kr,1,0,튜,NA,NULL,NA,NA,NA
3,1,20,memory,kr,2,1,반,NA,NULL,NA,NA,NA
3,1,20,memory,kr,3,2,후,NA,NULL,NA,NA,NA
3,1,20,memory,kr,4,3,특,NA,NULL,NA,NA,NA
3,1,20,memory,kr,5,4,배,NA,NULL,NA,NA,NA
3,1,20,memory,kr,6,5,건,NA,NULL,NA,NA,NA
3,1,20,updating,kr,1,1,반,패,NULL,NA,NA,yes
3,1,20,updating,kr,2,4,배,식,NULL,NA,NA,yes
3,1,20,updating,kr,3,5,건,찬,NULL,NA,NA,yes
3,1,20,retrieval,kr,1,2,후,후,반,FALSE,1660.1999999284744,no
3,1,20,retrieval,kr,2,0,튜,튜,식,FALSE,7027.899999976158,no
3,1,20,retrieval,kr,3,4,배,식,찬,FALSE,2971.399999976158,yes
3,1,20,retrieval,kr,4,5,건,찬,토,FALSE,3513.899999976158,yes
3,1,20,retrieval,kr,5,1,반,패,패,TRUE,1710,yes
3,1,20,retrieval,kr,6,3,특,특,토,FALSE,5433.899999976158,no
3,1,20,debrief,kr,NA,NA,NA,NA,NULL,NA,NA,NA
3,2,1,memory,cn,1,0,台,NA,NULL,NA,NA,NA
3,2,1,memory,cn,2,1,斗,NA,NULL,NA,NA,NA
3,2,1,memory,cn,3,2,阴,NA,NULL,NA,NA,NA
3,2,1,memory,cn,4,3,论,NA,NULL,NA,NA,NA
3,2,1,memory,cn,5,4,右,NA,NULL,NA,NA,NA
3,2,1,memory,cn,6,5,百,NA,NULL,NA,NA,NA
3,2,1,updating,cn,1,2,阴,兴,NULL,NA,NA,yes
3,2,1,updating,cn,2,4,右,丘,NULL,NA,NA,yes
3,2,1,updating,cn,3,3,论,贞,NULL,NA,NA,yes
3,2,1,retrieval,cn,1,2,阴,兴,齐,FALSE,10202,yes
3,2,1,retrieval,cn,2,4,右,丘,丘,TRUE,7456.299999952316,yes
3,2,1,retrieval,cn,3,0,台,台,台,TRUE,2404.399999976158,no
3,2,1,retrieval,cn,4,1,斗,斗,斗,TRUE,2507.600000023842,no
3,2,1,retrieval,cn,5,5,百,百,兴,FALSE,8336.5,no
3,2,1,retrieval,cn,6,3,论,贞,右,FALSE,6617.899999976158,yes
3,2,1,debrief,cn,NA,NA,NA,NA,NULL,NA,NA,NA
3,2,2,memory,cn,1,0,农,NA,NULL,NA,NA,NA
3,2,2,memory,cn,2,1,写,NA,NULL,NA,NA,NA
3,2,2,memory,cn,3,2,扫,NA,NULL,NA,NA,NA
3,2,2,memory,cn,4,3,扣,NA,NULL,NA,NA,NA
3,2,2,memory,cn,5,4,冲,NA,NULL,NA,NA,NA
3,2,2,memory,cn,6,5,打,NA,NULL,NA,NA,NA
3,2,2,updating,cn,1,4,冲,名,NULL,NA,NA,yes
3,2,2,updating,cn,2,0,农,比,NULL,NA,NA,yes
3,2,2,updating,cn,3,1,写,因,NULL,NA,NA,yes
3,2,2,retrieval,cn,1,2,扫,扫,扫,TRUE,2804.7000000476837,no
3,2,2,retrieval,cn,2,3,扣,扣,扣,TRUE,5871.899999976158,no
3,2,2,retrieval,cn,3,4,冲,名,名,TRUE,2834,yes
3,2,2,retrieval,cn,4,5,打,打,扫,FALSE,7945.300000071526,no
3,2,2,retrieval,cn,5,1,写,因,比,FALSE,2327.8000000715256,yes
3,2,2,retrieval,cn,6,0,农,比,因,FALSE,7061.899999976158,yes
3,2,2,debrief,cn,NA,NA,NA,NA,NULL,NA,NA,NA
3,2,3,memory,cn,1,0,奴,NA,NULL,NA,NA,NA
3,2,3,memory,cn,2,1,乔,NA,NULL,NA,NA,NA
3,2,3,memory,cn,3,2,司,NA,NULL,NA,NA,NA
3,2,3,memory,cn,4,3,丙,NA,NULL,NA,NA,NA
3,2,3,memory,cn,5,4,亚,NA,NULL,NA,NA,NA
3,2,3,memory,cn,6,5,旦,NA,NULL,NA,NA,NA
3,2,3,updating,cn,1,3,丙,匆,NULL,NA,NA,yes
3,2,3,updating,cn,2,4,亚,立,NULL,NA,NA,yes
3,2,3,updating,cn,3,5,旦,东,NULL,NA,NA,yes
3,2,3,retrieval,cn,1,2,司,司,司,TRUE,7745,no
3,2,3,retrieval,cn,2,4,亚,立,立,TRUE,2760.899999976158,yes
3,2,3,retrieval,cn,3,0,奴,奴,奴,TRUE,2458.5,no
3,2,3,retrieval,cn,4,1,乔,乔,乔,TRUE,1117.3000000715256,no
3,2,3,retrieval,cn,5,3,丙,匆,匆,TRUE,2862.2999999523163,yes
3,2,3,retrieval,cn,6,5,旦,东,东,TRUE,3813.5999999046326,yes
3,2,3,debrief,cn,NA,NA,NA,NA,NULL,NA,NA,NA
3,2,4,memory,cn,1,0,长,NA,NULL,NA,NA,NA
3,2,4,memory,cn,2,1,正,NA,NULL,NA,NA,NA
3,2,4,memory,cn,3,2,争,NA,NULL,NA,NA,NA
3,2,4,memory,cn,4,3,如,NA,NULL,NA,NA,NA
3,2,4,memory,cn,5,4,闯,NA,NULL,NA,NA,NA
3,2,4,memory,cn,6,5,什,NA,NULL,NA,NA,NA
3,2,4,updating,cn,1,5,什,伍,NULL,NA,NA,yes
3,2,4,updating,cn,2,3,如,忙,NULL,NA,NA,yes
3,2,4,updating,cn,3,4,闯,此,NULL,NA,NA,yes
3,2,4,retrieval,cn,1,2,争,争,孙,FALSE,12464.300000071526,no
3,2,4,retrieval,cn,2,4,闯,此,此,TRUE,4058.8000000715256,yes
3,2,4,retrieval,cn,3,0,长,长,如,FALSE,9494.300000071526,no
3,2,4,retrieval,cn,4,5,什,伍,伍,TRUE,5091.700000047684,yes
3,2,4,retrieval,cn,5,3,如,忙,忙,TRUE,2589.100000023842,yes
3,2,4,retrieval,cn,6,1,正,正,闯,FALSE,6009.600000023842,no
3,2,4,debrief,cn,NA,NA,NA,NA,NULL,NA,NA,NA
3,2,5,memory,cn,1,0,向,NA,NULL,NA,NA,NA
3,2,5,memory,cn,2,1,册,NA,NULL,NA,NA,NA
3,2,5,memory,cn,3,2,迅,NA,NULL,NA,NA,NA
3,2,5,memory,cn,4,3,凶,NA,NULL,NA,NA,NA
3,2,5,memory,cn,5,4,中,NA,NULL,NA,NA,NA
3,2,5,memory,cn,6,5,出,NA,NULL,NA,NA,NA
3,2,5,updating,cn,1,2,迅,瓦,NULL,NA,NA,yes
3,2,5,updating,cn,2,5,出,丝,NULL,NA,NA,yes
3,2,5,updating,cn,3,0,向,功,NULL,NA,NA,yes
3,2,5,retrieval,cn,1,4,中,中,中,TRUE,3043.399999976158,no
3,2,5,retrieval,cn,2,5,出,丝,丝,TRUE,4289.600000023842,yes
3,2,5,retrieval,cn,3,2,迅,瓦,瓦,TRUE,1821.8000000715256,yes
3,2,5,retrieval,cn,4,0,向,功,凶,FALSE,1463.8999999761581,yes
3,2,5,retrieval,cn,5,1,册,册,中,FALSE,6460.399999976158,no
3,2,5,retrieval,cn,6,3,凶,凶,功,FALSE,6114.5,no
3,2,5,debrief,cn,NA,NA,NA,NA,NULL,NA,NA,NA
3,2,6,memory,cn,1,0,韦,NA,NULL,NA,NA,NA
3,2,6,memory,cn,2,1,电,NA,NULL,NA,NA,NA
3,2,6,memory,cn,3,2,勾,NA,NULL,NA,NA,NA
3,2,6,memory,cn,4,3,讨,NA,NULL,NA,NA,NA
3,2,6,memory,cn,5,4,妄,NA,NULL,NA,NA,NA
3,2,6,memory,cn,6,5,世,NA,NULL,NA,NA,NA
3,2,6,updating,cn,1,1,电,午,NULL,NA,NA,yes
3,2,6,updating,cn,2,0,韦,华,NULL,NA,NA,yes
3,2,6,updating,cn,3,4,妄,安,NULL,NA,NA,yes
3,2,6,retrieval,cn,1,5,世,世,世,TRUE,4312.900000095367,no
3,2,6,retrieval,cn,2,0,韦,华,华,TRUE,1417.3999999761581,yes
3,2,6,retrieval,cn,3,4,妄,安,安,TRUE,4898.100000023842,yes
3,2,6,retrieval,cn,4,3,讨,讨,讨,TRUE,3979.600000023842,no
3,2,6,retrieval,cn,5,2,勾,勾,勾,TRUE,5393.700000047684,no
3,2,6,retrieval,cn,6,1,电,午,妄,FALSE,4661.200000047684,yes
3,2,6,debrief,cn,NA,NA,NA,NA,NULL,NA,NA,NA
3,2,7,memory,cn,1,0,导,NA,NULL,NA,NA,NA
3,2,7,memory,cn,2,1,设,NA,NULL,NA,NA,NA
3,2,7,memory,cn,3,2,专,NA,NULL,NA,NA,NA
3,2,7,memory,cn,4,3,关,NA,NULL,NA,NA,NA
3,2,7,memory,cn,5,4,阳,NA,NULL,NA,NA,NA
3,2,7,memory,cn,6,5,艺,NA,NULL,NA,NA,NA
3,2,7,updating,cn,1,0,导,污,NULL,NA,NA,yes
3,2,7,updating,cn,2,3,关,分,NULL,NA,NA,yes
3,2,7,updating,cn,3,1,设,旧,NULL,NA,NA,yes
3,2,7,retrieval,cn,1,3,关,分,分,TRUE,4564.5,yes
3,2,7,retrieval,cn,2,2,专,专,专,TRUE,4227.900000095367,no
3,2,7,retrieval,cn,3,1,设,旧,旧,TRUE,2797.399999976158,yes
3,2,7,retrieval,cn,4,4,阳,阳,旧,FALSE,3885.100000023842,no
3,2,7,retrieval,cn,5,5,艺,艺,设,FALSE,7950.199999928474,no
3,2,7,retrieval,cn,6,0,导,污,污,TRUE,1553.3999999761581,yes
3,2,7,debrief,cn,NA,NA,NA,NA,NULL,NA,NA,NA
3,2,8,memory,cn,1,0,半,NA,NULL,NA,NA,NA
3,2,8,memory,cn,2,1,书,NA,NULL,NA,NA,NA
3,2,8,memory,cn,3,2,创,NA,NULL,NA,NA,NA
3,2,8,memory,cn,4,3,叹,NA,NULL,NA,NA,NA
3,2,8,memory,cn,5,4,另,NA,NULL,NA,NA,NA
3,2,8,memory,cn,6,5,旬,NA,NULL,NA,NA,NA
3,2,8,updating,cn,1,5,旬,印,NULL,NA,NA,yes
3,2,8,updating,cn,2,0,半,令,NULL,NA,NA,yes
3,2,8,updating,cn,3,2,创,岂,NULL,NA,NA,yes
3,2,8,retrieval,cn,1,4,另,另,另,TRUE,6661.199999928474,no
3,2,8,retrieval,cn,2,1,书,书,书,TRUE,1502.8999999761581,no
3,2,8,retrieval,cn,3,3,叹,叹,半,FALSE,10986.399999976158,no
3,2,8,retrieval,cn,4,5,旬,印,印,TRUE,1762.7000000476837,yes
3,2,8,retrieval,cn,5,2,创,岂,岂,TRUE,3420.100000023842,yes
3,2,8,retrieval,cn,6,0,半,令,令,TRUE,4918.799999952316,yes
3,2,8,debrief,cn,NA,NA,NA,NA,NULL,NA,NA,NA
3,2,9,memory,cn,1,0,轨,NA,NULL,NA,NA,NA
3,2,9,memory,cn,2,1,宅,NA,NULL,NA,NA,NA
3,2,9,memory,cn,3,2,孔,NA,NULL,NA,NA,NA
3,2,9,memory,cn,4,3,页,NA,NULL,NA,NA,NA
3,2,9,memory,cn,5,4,夺,NA,NULL,NA,NA,NA
3,2,9,memory,cn,6,5,伤,NA,NULL,NA,NA,NA
3,2,9,updating,cn,1,3,页,市,NULL,NA,NA,yes
3,2,9,updating,cn,2,4,夺,厉,NULL,NA,NA,yes
3,2,9,updating,cn,3,0,轨,夸,NULL,NA,NA,yes
3,2,9,retrieval,cn,1,0,轨,夸,夸,TRUE,2555.600000023842,yes
3,2,9,retrieval,cn,2,5,伤,伤,伤,TRUE,5501.100000023842,no
3,2,9,retrieval,cn,3,3,页,市,市,TRUE,5274.899999976158,yes
3,2,9,retrieval,cn,4,1,宅,宅,宅,TRUE,6811.400000095367,no
3,2,9,retrieval,cn,5,4,夺,厉,厉,TRUE,2257.5,yes
3,2,9,retrieval,cn,6,2,孔,孔,孔,TRUE,3206.6999999284744,no
3,2,9,debrief,cn,NA,NA,NA,NA,NULL,NA,NA,NA
3,2,10,memory,cn,1,0,红,NA,NULL,NA,NA,NA
3,2,10,memory,cn,2,1,动,NA,NULL,NA,NA,NA
3,2,10,memory,cn,3,2,多,NA,NULL,NA,NA,NA
3,2,10,memory,cn,4,3,曰,NA,NULL,NA,NA,NA
3,2,10,memory,cn,5,4,奶,NA,NULL,NA,NA,NA
3,2,10,memory,cn,6,5,片,NA,NULL,NA,NA,NA
3,2,10,updating,cn,1,4,奶,纤,NULL,NA,NA,yes
3,2,10,updating,cn,2,0,红,闭,NULL,NA,NA,yes
3,2,10,updating,cn,3,1,动,凤,NULL,NA,NA,yes
3,2,10,retrieval,cn,1,2,多,多,多,TRUE,2132.399999976158,no
3,2,10,retrieval,cn,2,4,奶,纤,纤,TRUE,3761.7000000476837,yes
3,2,10,retrieval,cn,3,3,曰,曰,曰,TRUE,1785.1999999284744,no
3,2,10,retrieval,cn,4,1,动,凤,动,FALSE,4498.700000047684,yes
3,2,10,retrieval,cn,5,5,片,片,片,TRUE,2315.100000023842,no
3,2,10,retrieval,cn,6,0,红,闭,闭,TRUE,2595.1999999284744,yes
3,2,10,debrief,cn,NA,NA,NA,NA,NULL,NA,NA,NA
3,2,11,memory,cn,1,0,孕,NA,NULL,NA,NA,NA
3,2,11,memory,cn,2,1,伏,NA,NULL,NA,NA,NA
3,2,11,memory,cn,3,2,吕,NA,NULL,NA,NA,NA
3,2,11,memory,cn,4,3,玄,NA,NULL,NA,NA,NA
3,2,11,memory,cn,5,4,臣,NA,NULL,NA,NA,NA
3,2,11,memory,cn,6,5,忆,NA,NULL,NA,NA,NA
3,2,11,updating,cn,1,2,吕,从,NULL,NA,NA,yes
3,2,11,updating,cn,2,3,玄,巩,NULL,NA,NA,yes
3,2,11,updating,cn,3,0,孕,天,NULL,NA,NA,yes
3,2,11,retrieval,cn,1,3,玄,巩,巩,TRUE,3562.5,yes
3,2,11,retrieval,cn,2,5,忆,忆,忆,TRUE,12458.900000095367,no
3,2,11,retrieval,cn,3,4,臣,臣,臣,TRUE,4830.899999976158,no
3,2,11,retrieval,cn,4,1,伏,伏,伏,TRUE,7691.700000047684,no
3,2,11,retrieval,cn,5,2,吕,从,从,TRUE,1543.9000000953674,yes
3,2,11,retrieval,cn,6,0,孕,天,天,TRUE,1092.3000000715256,yes
3,2,11,debrief,cn,NA,NA,NA,NA,NULL,NA,NA,NA
3,2,12,memory,cn,1,0,辽,NA,NULL,NA,NA,NA
3,2,12,memory,cn,2,1,邪,NA,NULL,NA,NA,NA
3,2,12,memory,cn,3,2,田,NA,NULL,NA,NA,NA
3,2,12,memory,cn,4,3,汤,NA,NULL,NA,NA,NA
3,2,12,memory,cn,5,4,网,NA,NULL,NA,NA,NA
3,2,12,memory,cn,6,5,记,NA,NULL,NA,NA,NA
3,2,12,updating,cn,1,0,辽,卡,NULL,NA,NA,yes
3,2,12,updating,cn,2,5,记,他,NULL,NA,NA,yes
3,2,12,updating,cn,3,4,网,矛,NULL,NA,NA,yes
3,2,12,retrieval,cn,1,2,田,田,田,TRUE,5009.300000071526,no
3,2,12,retrieval,cn,2,1,邪,邪,邪,TRUE,5600.5,no
3,2,12,retrieval,cn,3,3,汤,汤,汤,TRUE,2090.399999976158,no
3,2,12,retrieval,cn,4,4,网,矛,网,FALSE,4044.2999999523163,yes
3,2,12,retrieval,cn,5,0,辽,卡,他,FALSE,2934.7999999523163,yes
3,2,12,retrieval,cn,6,5,记,他,记,FALSE,3081.899999976158,yes
3,2,12,debrief,cn,NA,NA,NA,NA,NULL,NA,NA,NA
3,2,13,memory,cn,1,0,公,NA,NULL,NA,NA,NA
3,2,13,memory,cn,2,1,幼,NA,NULL,NA,NA,NA
3,2,13,memory,cn,3,2,吊,NA,NULL,NA,NA,NA
3,2,13,memory,cn,4,3,先,NA,NULL,NA,NA,NA
3,2,13,memory,cn,5,4,叶,NA,NULL,NA,NA,NA
3,2,13,memory,cn,6,5,们,NA,NULL,NA,NA,NA
3,2,13,updating,cn,1,1,幼,平,NULL,NA,NA,yes
3,2,13,updating,cn,2,3,先,当,NULL,NA,NA,yes
3,2,13,updating,cn,3,4,叶,伪,NULL,NA,NA,yes
3,2,13,retrieval,cn,1,1,幼,平,平,TRUE,2883.399999976158,yes
3,2,13,retrieval,cn,2,2,吊,吊,吊,TRUE,1432.7999999523163,no
3,2,13,retrieval,cn,3,4,叶,伪,伪,TRUE,4958.200000047684,yes
3,2,13,retrieval,cn,4,5,们,们,们,TRUE,2693.2999999523163,no
3,2,13,retrieval,cn,5,0,公,公,公,TRUE,3191.600000023842,no
3,2,13,retrieval,cn,6,3,先,当,当,TRUE,2821.5999999046326,yes
3,2,13,debrief,cn,NA,NA,NA,NA,NULL,NA,NA,NA
3,2,14,memory,cn,1,0,云,NA,NULL,NA,NA,NA
3,2,14,memory,cn,2,1,以,NA,NULL,NA,NA,NA
3,2,14,memory,cn,3,2,仓,NA,NULL,NA,NA,NA
3,2,14,memory,cn,4,3,她,NA,NULL,NA,NA,NA
3,2,14,memory,cn,5,4,元,NA,NULL,NA,NA,NA
3,2,14,memory,cn,6,5,训,NA,NULL,NA,NA,NA
3,2,14,updating,cn,1,3,她,羊,NULL,NA,NA,yes
3,2,14,updating,cn,2,5,训,边,NULL,NA,NA,yes
3,2,14,updating,cn,3,0,云,观,NULL,NA,NA,yes
3,2,14,retrieval,cn,1,4,元,元,元,TRUE,4135.100000023842,no
3,2,14,retrieval,cn,2,3,她,羊,观,FALSE,1915.5999999046326,yes
3,2,14,retrieval,cn,3,0,云,观,观,TRUE,3403.899999976158,yes
3,2,14,retrieval,cn,4,5,训,边,边,TRUE,3756.4000000953674,yes
3,2,14,retrieval,cn,5,2,仓,仓,仓,TRUE,3184.100000023842,no
3,2,14,retrieval,cn,6,1,以,以,以,TRUE,5965.100000023842,no
3,2,14,debrief,cn,NA,NA,NA,NA,NULL,NA,NA,NA
3,2,15,memory,cn,1,0,考,NA,NULL,NA,NA,NA
3,2,15,memory,cn,2,1,丑,NA,NULL,NA,NA,NA
3,2,15,memory,cn,3,2,丛,NA,NULL,NA,NA,NA
3,2,15,memory,cn,4,3,乏,NA,NULL,NA,NA,NA
3,2,15,memory,cn,5,4,决,NA,NULL,NA,NA,NA
3,2,15,memory,cn,6,5,后,NA,NULL,NA,NA,NA
3,2,15,updating,cn,1,2,丛,灰,NULL,NA,NA,yes
3,2,15,updating,cn,2,1,丑,而,NULL,NA,NA,yes
3,2,15,updating,cn,3,4,决,衣,NULL,NA,NA,yes
3,2,15,retrieval,cn,1,1,丑,而,而,TRUE,2483.399999976158,yes
3,2,15,retrieval,cn,2,4,决,衣,决,FALSE,2251,yes
3,2,15,retrieval,cn,3,3,乏,乏,乏,TRUE,6351.300000071526,no
3,2,15,retrieval,cn,4,5,后,后,丛,FALSE,3193.5999999046326,no
3,2,15,retrieval,cn,5,2,丛,灰,灰,TRUE,1622.7000000476837,yes
3,2,15,retrieval,cn,6,0,考,考,考,TRUE,2212.399999976158,no
3,2,15,debrief,cn,NA,NA,NA,NA,NULL,NA,NA,NA
3,2,16,memory,cn,1,0,羽,NA,NULL,NA,NA,NA
3,2,16,memory,cn,2,1,心,NA,NULL,NA,NA,NA
3,2,16,memory,cn,3,2,吏,NA,NULL,NA,NA,NA
3,2,16,memory,cn,4,3,灯,NA,NULL,NA,NA,NA
3,2,16,memory,cn,5,4,永,NA,NULL,NA,NA,NA
3,2,16,memory,cn,6,5,仔,NA,NULL,NA,NA,NA
3,2,16,updating,cn,1,2,吏,巨,NULL,NA,NA,yes
3,2,16,updating,cn,2,4,永,仿,NULL,NA,NA,yes
3,2,16,updating,cn,3,5,仔,文,NULL,NA,NA,yes
3,2,16,retrieval,cn,1,3,灯,灯,灯,TRUE,2372.7999999523163,no
3,2,16,retrieval,cn,2,4,永,仿,仿,TRUE,3831.6999999284744,yes
3,2,16,retrieval,cn,3,2,吏,巨,巨,TRUE,4660.899999976158,yes
3,2,16,retrieval,cn,4,0,羽,羽,羽,TRUE,3784,no
3,2,16,retrieval,cn,5,5,仔,文,文,TRUE,2844.399999976158,yes
3,2,16,retrieval,cn,6,1,心,心,心,TRUE,2173.7999999523163,no
3,2,16,debrief,cn,NA,NA,NA,NA,NULL,NA,NA,NA
3,2,17,memory,cn,1,0,史,NA,NULL,NA,NA,NA
3,2,17,memory,cn,2,1,支,NA,NULL,NA,NA,NA
3,2,17,memory,cn,3,2,厅,NA,NULL,NA,NA,NA
3,2,17,memory,cn,4,3,申,NA,NULL,NA,NA,NA
3,2,17,memory,cn,5,4,匀,NA,NULL,NA,NA,NA
3,2,17,memory,cn,6,5,央,NA,NULL,NA,NA,NA
3,2,17,updating,cn,1,0,史,手,NULL,NA,NA,yes
3,2,17,updating,cn,2,4,匀,约,NULL,NA,NA,yes
3,2,17,updating,cn,3,5,央,止,NULL,NA,NA,yes
3,2,17,retrieval,cn,1,1,支,支,匀,FALSE,3118.7999999523163,no
3,2,17,retrieval,cn,2,0,史,手,史,FALSE,3722.899999976158,yes
3,2,17,retrieval,cn,3,3,申,申,申,TRUE,4400.899999976158,no
3,2,17,retrieval,cn,4,5,央,止,央,FALSE,7435.399999976158,yes
3,2,17,retrieval,cn,5,2,厅,厅,厅,TRUE,2652.9000000953674,no
3,2,17,retrieval,cn,6,4,匀,约,约,TRUE,2370.1999999284744,yes
3,2,17,debrief,cn,NA,NA,NA,NA,NULL,NA,NA,NA
3,2,18,memory,cn,1,0,讯,NA,NULL,NA,NA,NA
3,2,18,memory,cn,2,1,可,NA,NULL,NA,NA,NA
3,2,18,memory,cn,3,2,吉,NA,NULL,NA,NA,NA
3,2,18,memory,cn,4,3,戏,NA,NULL,NA,NA,NA
3,2,18,memory,cn,5,4,灭,NA,NULL,NA,NA,NA
3,2,18,memory,cn,6,5,同,NA,NULL,NA,NA,NA
3,2,18,updating,cn,1,1,可,讼,NULL,NA,NA,yes
3,2,18,updating,cn,2,2,吉,那,NULL,NA,NA,yes
3,2,18,updating,cn,3,4,灭,闪,NULL,NA,NA,yes
3,2,18,retrieval,cn,1,4,灭,闪,闪,TRUE,2467.2999999523163,yes
3,2,18,retrieval,cn,2,3,戏,戏,击,FALSE,17883.900000095367,no
3,2,18,retrieval,cn,3,2,吉,那,那,TRUE,3101.2000000476837,yes
3,2,18,retrieval,cn,4,0,讯,讯,讯,TRUE,1933.2999999523163,no
3,2,18,retrieval,cn,5,5,同,同,同,TRUE,3152.600000023842,no
3,2,18,retrieval,cn,6,1,可,讼,讼,TRUE,2427.899999976158,yes
3,2,18,debrief,cn,NA,NA,NA,NA,NULL,NA,NA,NA
3,2,19,memory,cn,1,0,布,NA,NULL,NA,NA,NA
3,2,19,memory,cn,2,1,托,NA,NULL,NA,NA,NA
3,2,19,memory,cn,3,2,许,NA,NULL,NA,NA,NA
3,2,19,memory,cn,4,3,白,NA,NULL,NA,NA,NA
3,2,19,memory,cn,5,4,化,NA,NULL,NA,NA,NA
3,2,19,memory,cn,6,5,亦,NA,NULL,NA,NA,NA
3,2,19,updating,cn,1,3,白,买,NULL,NA,NA,yes
3,2,19,updating,cn,2,0,布,仲,NULL,NA,NA,yes
3,2,19,updating,cn,3,5,亦,仪,NULL,NA,NA,yes
3,2,19,retrieval,cn,1,1,托,托,托,TRUE,3104.8000000715256,no
3,2,19,retrieval,cn,2,3,白,买,买,TRUE,2828.100000023842,yes
3,2,19,retrieval,cn,3,2,许,许,许,TRUE,2320.7000000476837,no
3,2,19,retrieval,cn,4,4,化,化,化,TRUE,1418.1999999284744,no
3,2,19,retrieval,cn,5,5,亦,仪,仪,TRUE,1631,yes
3,2,19,retrieval,cn,6,0,布,仲,仲,TRUE,5154.5,yes
3,2,19,debrief,cn,NA,NA,NA,NA,NULL,NA,NA,NA
3,2,20,memory,cn,1,0,古,NA,NULL,NA,NA,NA
3,2,20,memory,cn,2,1,邦,NA,NULL,NA,NA,NA
3,2,20,memory,cn,3,2,吸,NA,NULL,NA,NA,NA
3,2,20,memory,cn,4,3,仆,NA,NULL,NA,NA,NA
3,2,20,memory,cn,5,4,廷,NA,NULL,NA,NA,NA
3,2,20,memory,cn,6,5,仙,NA,NULL,NA,NA,NA
3,2,20,updating,cn,1,1,邦,包,NULL,NA,NA,yes
3,2,20,updating,cn,2,3,仆,开,NULL,NA,NA,yes
3,2,20,updating,cn,3,0,古,仅,NULL,NA,NA,yes
3,2,20,retrieval,cn,1,1,邦,包,包,TRUE,2068.7000000476837,yes
3,2,20,retrieval,cn,2,3,仆,开,开,TRUE,2126.8000000715256,yes
3,2,20,retrieval,cn,3,4,廷,廷,廷,TRUE,1302.0999999046326,no
3,2,20,retrieval,cn,4,0,古,仅,仅,TRUE,2655.100000023842,yes
3,2,20,retrieval,cn,5,5,仙,仙,仙,TRUE,2615.5999999046326,no
3,2,20,retrieval,cn,6,2,吸,吸,吸,TRUE,4184.900000095367,no
3,2,20,debrief,cn,NA,NA,NA,NA,NULL,NA,NA,NA
