participant,block,trial,screenID,condition,stepID,position,initial_item,final_item,npl_items,answer,acc,rt,updPos
1,1,1,memory,kr,1,0,휴,NA,NA,NULL,NA,NA,NA
1,1,1,memory,kr,2,1,음,NA,NA,NULL,NA,NA,NA
1,1,1,memory,kr,3,2,큼,NA,NA,NULL,NA,NA,NA
1,1,1,memory,kr,4,3,았,NA,NA,NULL,NA,NA,NA
1,1,1,memory,kr,5,4,위,NA,NA,NULL,NA,NA,NA
1,1,1,memory,kr,6,5,보,NA,NA,NULL,NA,NA,NA
1,1,1,updating,kr,1,0,휴,문,NA,NULL,NA,NA,yes
1,1,1,updating,kr,2,3,았,뿌,NA,NULL,NA,NA,yes
1,1,1,updating,kr,3,2,큼,조,NA,NULL,NA,NA,yes
1,1,1,retrieval,kr,1,1,음,음,"꾸,까,뜻,효,표,르",문,FALSE,8916,no
1,1,1,retrieval,kr,2,5,보,보,"꾸,까,뜻,효,표,르",큼,FALSE,2261.7000000029802,no
1,1,1,retrieval,kr,3,2,큼,조,"꾸,까,뜻,효,표,르",까,FALSE,2728.5,yes
1,1,1,retrieval,kr,4,0,휴,문,"꾸,까,뜻,효,표,르",효,FALSE,5455.0999999940395,yes
1,1,1,retrieval,kr,5,3,았,뿌,"꾸,까,뜻,효,표,르",뿌,TRUE,2188.5999999940395,yes
1,1,1,retrieval,kr,6,4,위,위,"꾸,까,뜻,효,표,르",조,FALSE,3581.0999999940395,no
1,1,1,debrief,kr,NA,NA,NA,NA,NA,NULL,NA,NA,NA
1,1,2,memory,kr,1,0,조,NA,NA,NULL,NA,NA,NA
1,1,2,memory,kr,2,1,보,NA,NA,NULL,NA,NA,NA
1,1,2,memory,kr,3,2,효,NA,NA,NULL,NA,NA,NA
1,1,2,memory,kr,4,3,뿌,NA,NA,NULL,NA,NA,NA
1,1,2,memory,kr,5,4,뜻,NA,NA,NULL,NA,NA,NA
1,1,2,memory,kr,6,5,음,NA,NA,NULL,NA,NA,NA
1,1,2,updating,kr,1,5,음,았,NA,NULL,NA,NA,yes
1,1,2,updating,kr,2,3,뿌,문,NA,NULL,NA,NA,yes
1,1,2,updating,kr,3,0,조,르,NA,NULL,NA,NA,yes
1,1,2,retrieval,kr,1,5,음,았,"휴,큼,까,위,표,꾸",뜻,FALSE,2661.2999999970198,yes
1,1,2,retrieval,kr,2,0,조,르,"휴,큼,까,위,표,꾸",르,TRUE,1706.7999999970198,yes
1,1,2,retrieval,kr,3,1,보,보,"휴,큼,까,위,표,꾸",까,FALSE,8806.19999999553,no
1,1,2,retrieval,kr,4,3,뿌,문,"휴,큼,까,위,표,꾸",효,FALSE,6122.70000000298,yes
1,1,2,retrieval,kr,5,2,효,효,"휴,큼,까,위,표,꾸",문,FALSE,3608.5,no
1,1,2,retrieval,kr,6,4,뜻,뜻,"휴,큼,까,위,표,꾸",았,FALSE,2052.6999999955297,no
1,1,2,debrief,kr,NA,NA,NA,NA,NA,NULL,NA,NA,NA
1,1,3,memory,kr,1,0,큼,NA,NA,NULL,NA,NA,NA
1,1,3,memory,kr,2,1,효,NA,NA,NULL,NA,NA,NA
1,1,3,memory,kr,3,2,보,NA,NA,NULL,NA,NA,NA
1,1,3,memory,kr,4,3,뜻,NA,NA,NULL,NA,NA,NA
1,1,3,memory,kr,5,4,조,NA,NA,NULL,NA,NA,NA
1,1,3,memory,kr,6,5,르,NA,NA,NULL,NA,NA,NA
1,1,3,updating,kr,1,0,큼,위,NA,NULL,NA,NA,yes
1,1,3,updating,kr,2,2,보,문,NA,NULL,NA,NA,yes
1,1,3,updating,kr,3,5,르,까,NA,NULL,NA,NA,yes
1,1,3,retrieval,kr,1,1,효,효,"뿌,았,음,꾸,휴,표",위,FALSE,5556.19999999553,no
1,1,3,retrieval,kr,2,0,큼,위,"뿌,았,음,꾸,휴,표",위,TRUE,14662.70000000298,yes
1,1,3,retrieval,kr,3,2,보,문,"뿌,았,음,꾸,휴,표",문,TRUE,865.5,yes
1,1,3,retrieval,kr,4,5,르,까,"뿌,았,음,꾸,휴,표",까,TRUE,9958.69999999553,yes
1,1,3,retrieval,kr,5,3,뜻,뜻,"뿌,았,음,꾸,휴,표",았,FALSE,2073.10000000149,no
1,1,3,retrieval,kr,6,4,조,조,"뿌,았,음,꾸,휴,표",음,FALSE,417.8999999985099,no
1,1,3,debrief,kr,NA,NA,NA,NA,NA,NULL,NA,NA,NA
1,1,4,memory,kr,1,0,문,NA,NA,NULL,NA,NA,NA
1,1,4,memory,kr,2,1,조,NA,NA,NULL,NA,NA,NA
1,1,4,memory,kr,3,2,큼,NA,NA,NULL,NA,NA,NA
1,1,4,memory,kr,4,3,음,NA,NA,NULL,NA,NA,NA
1,1,4,memory,kr,5,4,표,NA,NA,NULL,NA,NA,NA
1,1,4,memory,kr,6,5,뿌,NA,NA,NULL,NA,NA,NA
1,1,4,updating,kr,1,5,뿌,휴,NA,NULL,NA,NA,yes
1,1,4,updating,kr,2,1,조,까,NA,NULL,NA,NA,yes
1,1,4,updating,kr,3,2,큼,보,NA,NULL,NA,NA,yes
1,1,4,retrieval,kr,1,3,음,음,"위,르,뜻,효,꾸,았",표,FALSE,6832.70000000298,no
1,1,4,retrieval,kr,2,0,문,문,"위,르,뜻,효,꾸,았",큼,FALSE,4930.60000000149,no
1,1,4,retrieval,kr,3,1,조,까,"위,르,뜻,효,꾸,았",까,TRUE,6562.20000000298,yes
1,1,4,retrieval,kr,4,4,표,표,"위,르,뜻,효,꾸,았",음,FALSE,3620.2000000029802,no
1,1,4,retrieval,kr,5,5,뿌,휴,"위,르,뜻,효,꾸,았",문,FALSE,7212.89999999851,yes
1,1,4,retrieval,kr,6,2,큼,보,"위,르,뜻,효,꾸,았",조,FALSE,4364.30000000447,yes
1,1,4,debrief,kr,NA,NA,NA,NA,NA,NULL,NA,NA,NA
1,1,5,memory,kr,1,0,표,NA,NA,NULL,NA,NA,NA
1,1,5,memory,kr,2,1,음,NA,NA,NULL,NA,NA,NA
1,1,5,memory,kr,3,2,았,NA,NA,NULL,NA,NA,NA
1,1,5,memory,kr,4,3,뜻,NA,NA,NULL,NA,NA,NA
1,1,5,memory,kr,5,4,르,NA,NA,NULL,NA,NA,NA
1,1,5,memory,kr,6,5,꾸,NA,NA,NULL,NA,NA,NA
1,1,5,updating,kr,1,2,았,조,NA,NULL,NA,NA,yes
1,1,5,updating,kr,2,5,꾸,위,NA,NULL,NA,NA,yes
1,1,5,updating,kr,3,4,르,휴,NA,NULL,NA,NA,yes
1,1,5,retrieval,kr,1,1,음,음,"큼,뿌,보,문,효,까",음,TRUE,7668.10000000149,no
1,1,5,retrieval,kr,2,3,뜻,뜻,"큼,뿌,보,문,효,까",뜻,TRUE,3633.89999999851,no
1,1,5,retrieval,kr,3,2,았,조,"큼,뿌,보,문,효,까",조,TRUE,4929.89999999851,yes
1,1,5,retrieval,kr,4,4,르,휴,"큼,뿌,보,문,효,까",효,FALSE,14845.5,yes
1,1,5,retrieval,kr,5,0,표,표,"큼,뿌,보,문,효,까",표,TRUE,2625.0999999940395,no
1,1,5,retrieval,kr,6,5,꾸,위,"큼,뿌,보,문,효,까",위,TRUE,5711,yes
1,1,5,debrief,kr,NA,NA,NA,NA,NA,NULL,NA,NA,NA
1,1,6,memory,kr,1,0,문,NA,NA,NULL,NA,NA,NA
1,1,6,memory,kr,2,1,표,NA,NA,NULL,NA,NA,NA
1,1,6,memory,kr,3,2,위,NA,NA,NULL,NA,NA,NA
1,1,6,memory,kr,4,3,보,NA,NA,NULL,NA,NA,NA
1,1,6,memory,kr,5,4,조,NA,NA,NULL,NA,NA,NA
1,1,6,memory,kr,6,5,꾸,NA,NA,NULL,NA,NA,NA
1,1,6,updating,kr,1,1,표,르,NA,NULL,NA,NA,yes
1,1,6,updating,kr,2,3,보,까,NA,NULL,NA,NA,yes
1,1,6,updating,kr,3,4,조,았,NA,NULL,NA,NA,yes
1,1,6,retrieval,kr,1,0,문,문,"휴,효,뜻,뿌,음,큼",문,TRUE,2306.60000000149,no
1,1,6,retrieval,kr,2,1,표,르,"휴,효,뜻,뿌,음,큼",르,TRUE,3878,yes
1,1,6,retrieval,kr,3,2,위,위,"휴,효,뜻,뿌,음,큼",위,TRUE,1672.5,no
1,1,6,retrieval,kr,4,3,보,까,"휴,효,뜻,뿌,음,큼",까,TRUE,3123.5,yes
1,1,6,retrieval,kr,5,5,꾸,꾸,"휴,효,뜻,뿌,음,큼",뜻,FALSE,13472.29999999702,no
1,1,6,retrieval,kr,6,4,조,았,"휴,효,뜻,뿌,음,큼",았,TRUE,773.7000000029802,yes
1,1,6,debrief,kr,NA,NA,NA,NA,NA,NULL,NA,NA,NA
1,1,7,memory,kr,1,0,까,NA,NA,NULL,NA,NA,NA
1,1,7,memory,kr,2,1,보,NA,NA,NULL,NA,NA,NA
1,1,7,memory,kr,3,2,큼,NA,NA,NULL,NA,NA,NA
1,1,7,memory,kr,4,3,뜻,NA,NA,NULL,NA,NA,NA
1,1,7,memory,kr,5,4,위,NA,NA,NULL,NA,NA,NA
1,1,7,memory,kr,6,5,조,NA,NA,NULL,NA,NA,NA
1,1,7,updating,kr,1,3,뜻,르,NA,NULL,NA,NA,yes
1,1,7,updating,kr,2,5,조,꾸,NA,NULL,NA,NA,yes
1,1,7,updating,kr,3,0,까,표,NA,NULL,NA,NA,yes
1,1,7,retrieval,kr,1,3,뜻,르,"문,았,효,음,뿌,휴",르,TRUE,6472.9000000059605,yes
1,1,7,retrieval,kr,2,2,큼,큼,"문,았,효,음,뿌,휴",보,FALSE,9162.39999999851,no
1,1,7,retrieval,kr,3,5,조,꾸,"문,았,효,음,뿌,휴",표,FALSE,5857,yes
1,1,7,retrieval,kr,4,0,까,표,"문,았,효,음,뿌,휴",까,FALSE,1754.6000000014901,yes
1,1,7,retrieval,kr,5,4,위,위,"문,았,효,음,뿌,휴",위,TRUE,3792.3000000044703,no
1,1,7,retrieval,kr,6,1,보,보,"문,았,효,음,뿌,휴",보,TRUE,3281.9000000059605,no
1,1,7,debrief,kr,NA,NA,NA,NA,NA,NULL,NA,NA,NA
1,1,8,memory,kr,1,0,았,NA,NA,NULL,NA,NA,NA
1,1,8,memory,kr,2,1,꾸,NA,NA,NULL,NA,NA,NA
1,1,8,memory,kr,3,2,음,NA,NA,NULL,NA,NA,NA
1,1,8,memory,kr,4,3,위,NA,NA,NULL,NA,NA,NA
1,1,8,memory,kr,5,4,표,NA,NA,NULL,NA,NA,NA
1,1,8,memory,kr,6,5,휴,NA,NA,NULL,NA,NA,NA
1,1,8,updating,kr,1,2,음,뿌,NA,NULL,NA,NA,yes
1,1,8,updating,kr,2,3,위,보,NA,NULL,NA,NA,yes
1,1,8,updating,kr,3,0,았,문,NA,NULL,NA,NA,yes
1,1,8,retrieval,kr,1,5,휴,휴,"조,르,뜻,효,까,큼",위,FALSE,3840.2000000029802,no
1,1,8,retrieval,kr,2,3,위,보,"조,르,뜻,효,까,큼",뿌,FALSE,16261.40000000596,yes
1,1,8,retrieval,kr,3,2,음,뿌,"조,르,뜻,효,까,큼",음,FALSE,859.7999999970198,yes
1,1,8,retrieval,kr,4,4,표,표,"조,르,뜻,효,까,큼",조,FALSE,4414.39999999851,no
1,1,8,retrieval,kr,5,1,꾸,꾸,"조,르,뜻,효,까,큼",뜻,FALSE,1272.8999999985099,no
1,1,8,retrieval,kr,6,0,았,문,"조,르,뜻,효,까,큼",르,FALSE,897.8999999985099,yes
1,1,8,debrief,kr,NA,NA,NA,NA,NA,NULL,NA,NA,NA
1,2,1,memory,kr,1,0,문,NA,NA,NULL,NA,NA,NA
1,2,1,memory,kr,2,1,휴,NA,NA,NULL,NA,NA,NA
1,2,1,memory,kr,3,2,까,NA,NA,NULL,NA,NA,NA
1,2,1,memory,kr,4,3,음,NA,NA,NULL,NA,NA,NA
1,2,1,memory,kr,5,4,효,NA,NA,NULL,NA,NA,NA
1,2,1,memory,kr,6,5,보,NA,NA,NULL,NA,NA,NA
1,2,1,updating,kr,1,3,음,았,NA,NULL,NA,NA,yes
1,2,1,updating,kr,2,5,보,조,NA,NULL,NA,NA,yes
1,2,1,updating,kr,3,1,휴,표,NA,NULL,NA,NA,yes
1,2,1,retrieval,kr,1,4,효,효,"뿌,큼,뜻,꾸,위,르",효,TRUE,6206.5999999940395,no
1,2,1,retrieval,kr,2,5,보,조,"뿌,큼,뜻,꾸,위,르",조,TRUE,3731.39999999851,yes
1,2,1,retrieval,kr,3,0,문,문,"뿌,큼,뜻,꾸,위,르",문,TRUE,2496.39999999851,no
1,2,1,retrieval,kr,4,2,까,까,"뿌,큼,뜻,꾸,위,르",까,TRUE,2849.7999999970198,no
1,2,1,retrieval,kr,5,1,휴,표,"뿌,큼,뜻,꾸,위,르",표,TRUE,1625.0999999940395,yes
1,2,1,retrieval,kr,6,3,음,았,"뿌,큼,뜻,꾸,위,르",았,TRUE,1756.6000000014901,yes
1,2,1,debrief,kr,NA,NA,NA,NA,NA,NULL,NA,NA,NA
1,2,2,memory,kr,1,0,휴,NA,NA,NULL,NA,NA,NA
1,2,2,memory,kr,2,1,조,NA,NA,NULL,NA,NA,NA
1,2,2,memory,kr,3,2,위,NA,NA,NULL,NA,NA,NA
1,2,2,memory,kr,4,3,큼,NA,NA,NULL,NA,NA,NA
1,2,2,memory,kr,5,4,표,NA,NA,NULL,NA,NA,NA
1,2,2,memory,kr,6,5,꾸,NA,NA,NULL,NA,NA,NA
1,2,2,updating,kr,1,3,큼,았,NA,NULL,NA,NA,yes
1,2,2,updating,kr,2,5,꾸,효,NA,NULL,NA,NA,yes
1,2,2,updating,kr,3,0,휴,보,NA,NULL,NA,NA,yes
1,2,2,retrieval,kr,1,1,조,조,"까,뜻,뿌,문,르,음",조,TRUE,6003.39999999851,no
1,2,2,retrieval,kr,2,2,위,위,"까,뜻,뿌,문,르,음",큼,FALSE,4845.10000000149,no
1,2,2,retrieval,kr,3,0,휴,보,"까,뜻,뿌,문,르,음",보,TRUE,8874.60000000149,yes
1,2,2,retrieval,kr,4,5,꾸,효,"까,뜻,뿌,문,르,음",보,FALSE,6652.10000000149,yes
1,2,2,retrieval,kr,5,4,표,표,"까,뜻,뿌,문,르,음",았,FALSE,4227.10000000149,no
1,2,2,retrieval,kr,6,3,큼,았,"까,뜻,뿌,문,르,음",았,TRUE,1002.3000000044703,yes
1,2,2,debrief,kr,NA,NA,NA,NA,NA,NULL,NA,NA,NA
1,2,3,memory,kr,1,0,음,NA,NA,NULL,NA,NA,NA
1,2,3,memory,kr,2,1,조,NA,NA,NULL,NA,NA,NA
1,2,3,memory,kr,3,2,위,NA,NA,NULL,NA,NA,NA
1,2,3,memory,kr,4,3,르,NA,NA,NULL,NA,NA,NA
1,2,3,memory,kr,5,4,았,NA,NA,NULL,NA,NA,NA
1,2,3,memory,kr,6,5,꾸,NA,NA,NULL,NA,NA,NA
1,2,3,updating,kr,1,4,았,휴,NA,NULL,NA,NA,yes
1,2,3,updating,kr,2,0,음,뜻,NA,NULL,NA,NA,yes
1,2,3,updating,kr,3,1,조,문,NA,NULL,NA,NA,yes
1,2,3,retrieval,kr,1,4,았,휴,"효,까,뿌,표,보,큼",았,FALSE,5914.30000000447,yes
1,2,3,retrieval,kr,2,3,르,르,"효,까,뿌,표,보,큼",위,FALSE,3171.9000000059605,no
1,2,3,retrieval,kr,3,2,위,위,"효,까,뿌,표,보,큼",조,FALSE,2662,no
1,2,3,retrieval,kr,4,1,조,문,"효,까,뿌,표,보,큼",효,FALSE,8265.10000000149,yes
1,2,3,retrieval,kr,5,0,음,뜻,"효,까,뿌,표,보,큼",뜻,TRUE,1460.2000000029802,yes
1,2,3,retrieval,kr,6,5,꾸,꾸,"효,까,뿌,표,보,큼",꾸,TRUE,5119.5,no
1,2,3,debrief,kr,NA,NA,NA,NA,NA,NULL,NA,NA,NA
1,2,4,memory,kr,1,0,휴,NA,NA,NULL,NA,NA,NA
1,2,4,memory,kr,2,1,조,NA,NA,NULL,NA,NA,NA
1,2,4,memory,kr,3,2,표,NA,NA,NULL,NA,NA,NA
1,2,4,memory,kr,4,3,뜻,NA,NA,NULL,NA,NA,NA
1,2,4,memory,kr,5,4,위,NA,NA,NULL,NA,NA,NA
1,2,4,memory,kr,6,5,뿌,NA,NA,NULL,NA,NA,NA
1,2,4,updating,kr,1,1,조,보,NA,NULL,NA,NA,yes
1,2,4,updating,kr,2,2,표,큼,NA,NULL,NA,NA,yes
1,2,4,updating,kr,3,0,휴,문,NA,NULL,NA,NA,yes
1,2,4,retrieval,kr,1,5,뿌,뿌,"르,꾸,았,음,까,효",뿌,TRUE,4861.39999999851,no
1,2,4,retrieval,kr,2,1,조,보,"르,꾸,았,음,까,효",보,TRUE,6783,yes
1,2,4,retrieval,kr,3,2,표,큼,"르,꾸,았,음,까,효",큼,TRUE,3655.39999999851,yes
1,2,4,retrieval,kr,4,4,위,위,"르,꾸,았,음,까,효",뜻,FALSE,13715,no
1,2,4,retrieval,kr,5,3,뜻,뜻,"르,꾸,았,음,까,효",위,FALSE,3739,no
1,2,4,retrieval,kr,6,0,휴,문,"르,꾸,았,음,까,효",문,TRUE,3321.2999999970198,yes
1,2,4,debrief,kr,NA,NA,NA,NA,NA,NULL,NA,NA,NA
1,2,5,memory,kr,1,0,았,NA,NA,NULL,NA,NA,NA
1,2,5,memory,kr,2,1,까,NA,NA,NULL,NA,NA,NA
1,2,5,memory,kr,3,2,큼,NA,NA,NULL,NA,NA,NA
1,2,5,memory,kr,4,3,표,NA,NA,NULL,NA,NA,NA
1,2,5,memory,kr,5,4,음,NA,NA,NULL,NA,NA,NA
1,2,5,memory,kr,6,5,르,NA,NA,NULL,NA,NA,NA
1,2,5,updating,kr,1,3,표,보,NA,NULL,NA,NA,yes
1,2,5,updating,kr,2,0,았,문,NA,NULL,NA,NA,yes
1,2,5,updating,kr,3,2,큼,효,NA,NULL,NA,NA,yes
1,2,5,retrieval,kr,1,5,르,르,"꾸,위,뜻,뿌,조,휴",르,TRUE,3415.10000000149,no
1,2,5,retrieval,kr,2,0,았,문,"꾸,위,뜻,뿌,조,휴",문,TRUE,2645.89999999851,yes
1,2,5,retrieval,kr,3,3,표,보,"꾸,위,뜻,뿌,조,휴",보,TRUE,2036.3999999985099,yes
1,2,5,retrieval,kr,4,2,큼,효,"꾸,위,뜻,뿌,조,휴",효,TRUE,18067.30000000447,yes
1,2,5,retrieval,kr,5,1,까,까,"꾸,위,뜻,뿌,조,휴",았,FALSE,7260.69999999553,no
1,2,5,retrieval,kr,6,4,음,음,"꾸,위,뜻,뿌,조,휴",음,TRUE,6908.5,no
1,2,5,debrief,kr,NA,NA,NA,NA,NA,NULL,NA,NA,NA
1,2,6,memory,kr,1,0,표,NA,NA,NULL,NA,NA,NA
1,2,6,memory,kr,2,1,효,NA,NA,NULL,NA,NA,NA
1,2,6,memory,kr,3,2,았,NA,NA,NULL,NA,NA,NA
1,2,6,memory,kr,4,3,휴,NA,NA,NULL,NA,NA,NA
1,2,6,memory,kr,5,4,문,NA,NA,NULL,NA,NA,NA
1,2,6,memory,kr,6,5,뿌,NA,NA,NULL,NA,NA,NA
1,2,6,updating,kr,1,3,휴,큼,NA,NULL,NA,NA,yes
1,2,6,updating,kr,2,4,문,음,NA,NULL,NA,NA,yes
1,2,6,updating,kr,3,1,효,조,NA,NULL,NA,NA,yes
1,2,6,retrieval,kr,1,3,휴,큼,"꾸,뜻,르,위,까,보",문,FALSE,18520,yes
1,2,6,retrieval,kr,2,1,효,조,"꾸,뜻,르,위,까,보",효,FALSE,5030.39999999851,yes
1,2,6,retrieval,kr,3,0,표,표,"꾸,뜻,르,위,까,보",표,TRUE,2178.8000000044703,no
1,2,6,retrieval,kr,4,2,았,았,"꾸,뜻,르,위,까,보",았,TRUE,2104.1999999955297,no
1,2,6,retrieval,kr,5,4,문,음,"꾸,뜻,르,위,까,보",보,FALSE,7286.19999999553,yes
1,2,6,retrieval,kr,6,5,뿌,뿌,"꾸,뜻,르,위,까,보",뿌,TRUE,843.8999999985099,no
1,2,6,debrief,kr,NA,NA,NA,NA,NA,NULL,NA,NA,NA
1,2,7,memory,kr,1,0,휴,NA,NA,NULL,NA,NA,NA
1,2,7,memory,kr,2,1,위,NA,NA,NULL,NA,NA,NA
1,2,7,memory,kr,3,2,았,NA,NA,NULL,NA,NA,NA
1,2,7,memory,kr,4,3,뜻,NA,NA,NULL,NA,NA,NA
1,2,7,memory,kr,5,4,큼,NA,NA,NULL,NA,NA,NA
1,2,7,memory,kr,6,5,효,NA,NA,NULL,NA,NA,NA
1,2,7,updating,kr,1,5,효,르,NA,NULL,NA,NA,yes
1,2,7,updating,kr,2,3,뜻,표,NA,NULL,NA,NA,yes
1,2,7,updating,kr,3,1,위,뿌,NA,NULL,NA,NA,yes
1,2,7,retrieval,kr,1,1,위,뿌,"음,까,보,문,조,꾸",뿌,TRUE,2089.0999999940395,yes
1,2,7,retrieval,kr,2,2,았,았,"음,까,보,문,조,꾸",뜻,FALSE,1969.5,no
1,2,7,retrieval,kr,3,0,휴,휴,"음,까,보,문,조,꾸",휴,TRUE,2857.9000000059605,no
1,2,7,retrieval,kr,4,5,효,르,"음,까,보,문,조,꾸",았,FALSE,8158.30000000447,yes
1,2,7,retrieval,kr,5,4,큼,큼,"음,까,보,문,조,꾸",효,FALSE,2109.2999999970198,no
1,2,7,retrieval,kr,6,3,뜻,표,"음,까,보,문,조,꾸",효,FALSE,610.3999999985099,yes
1,2,7,debrief,kr,NA,NA,NA,NA,NA,NULL,NA,NA,NA
1,2,8,memory,kr,1,0,뜻,NA,NA,NULL,NA,NA,NA
1,2,8,memory,kr,2,1,문,NA,NA,NULL,NA,NA,NA
1,2,8,memory,kr,3,2,뿌,NA,NA,NULL,NA,NA,NA
1,2,8,memory,kr,4,3,꾸,NA,NA,NULL,NA,NA,NA
1,2,8,memory,kr,5,4,았,NA,NA,NULL,NA,NA,NA
1,2,8,memory,kr,6,5,효,NA,NA,NULL,NA,NA,NA
1,2,8,updating,kr,1,4,았,휴,NA,NULL,NA,NA,yes
1,2,8,updating,kr,2,5,효,위,NA,NULL,NA,NA,yes
1,2,8,updating,kr,3,1,문,큼,NA,NULL,NA,NA,yes
1,2,8,retrieval,kr,1,2,뿌,뿌,"보,표,조,음,까,르",뿌,TRUE,6811.20000000298,no
1,2,8,retrieval,kr,2,0,뜻,뜻,"보,표,조,음,까,르",뜻,TRUE,1418.3000000044703,no
1,2,8,retrieval,kr,3,5,효,위,"보,표,조,음,까,르",위,TRUE,6213.5,yes
1,2,8,retrieval,kr,4,4,았,휴,"보,표,조,음,까,르",꾸,FALSE,4038.5999999940395,yes
1,2,8,retrieval,kr,5,3,꾸,꾸,"보,표,조,음,까,르",꾸,TRUE,2692.5999999940395,no
1,2,8,retrieval,kr,6,1,문,큼,"보,표,조,음,까,르",효,FALSE,6071.9000000059605,yes
1,2,8,debrief,kr,NA,NA,NA,NA,NA,NULL,NA,NA,NA
1,3,1,memory,kr,1,0,르,NA,NA,NULL,NA,NA,NA
1,3,1,memory,kr,2,1,조,NA,NA,NULL,NA,NA,NA
1,3,1,memory,kr,3,2,았,NA,NA,NULL,NA,NA,NA
1,3,1,memory,kr,4,3,표,NA,NA,NULL,NA,NA,NA
1,3,1,memory,kr,5,4,뿌,NA,NA,NULL,NA,NA,NA
1,3,1,memory,kr,6,5,큼,NA,NA,NULL,NA,NA,NA
1,3,1,updating,kr,1,3,표,꾸,NA,NULL,NA,NA,yes
1,3,1,updating,kr,2,0,르,까,NA,NULL,NA,NA,yes
1,3,1,updating,kr,3,4,뿌,보,NA,NULL,NA,NA,yes
1,3,1,retrieval,kr,1,4,뿌,보,"효,문,위,음,뜻,휴",보,TRUE,2488.3000000044703,yes
1,3,1,retrieval,kr,2,2,았,았,"효,문,위,음,뜻,휴",았,TRUE,2283,no
1,3,1,retrieval,kr,3,1,조,조,"효,문,위,음,뜻,휴",표,FALSE,3190.5,no
1,3,1,retrieval,kr,4,5,큼,큼,"효,문,위,음,뜻,휴",큼,TRUE,10097.19999999553,no
1,3,1,retrieval,kr,5,3,표,꾸,"효,문,위,음,뜻,휴",큼,FALSE,9145,yes
1,3,1,retrieval,kr,6,0,르,까,"효,문,위,음,뜻,휴",큼,FALSE,1362.3999999985099,yes
1,3,1,debrief,kr,NA,NA,NA,NA,NA,NULL,NA,NA,NA
1,3,2,memory,kr,1,0,효,NA,NA,NULL,NA,NA,NA
1,3,2,memory,kr,2,1,큼,NA,NA,NULL,NA,NA,NA
1,3,2,memory,kr,3,2,뜻,NA,NA,NULL,NA,NA,NA
1,3,2,memory,kr,4,3,위,NA,NA,NULL,NA,NA,NA
1,3,2,memory,kr,5,4,문,NA,NA,NULL,NA,NA,NA
1,3,2,memory,kr,6,5,뿌,NA,NA,NULL,NA,NA,NA
1,3,2,updating,kr,1,1,큼,보,NA,NULL,NA,NA,yes
1,3,2,updating,kr,2,2,뜻,휴,NA,NULL,NA,NA,yes
1,3,2,updating,kr,3,4,문,표,NA,NULL,NA,NA,yes
1,3,2,retrieval,kr,1,4,문,표,"았,조,까,르,꾸,음",표,TRUE,2674.39999999851,yes
1,3,2,retrieval,kr,2,1,큼,보,"았,조,까,르,꾸,음",보,TRUE,9177.10000000149,yes
1,3,2,retrieval,kr,3,2,뜻,휴,"았,조,까,르,꾸,음",휴,TRUE,3303.4000000059605,yes
1,3,2,retrieval,kr,4,0,효,효,"았,조,까,르,꾸,음",효,TRUE,1956.6999999955297,no
1,3,2,retrieval,kr,5,5,뿌,뿌,"았,조,까,르,꾸,음",뿌,TRUE,2715.0999999940395,no
1,3,2,retrieval,kr,6,3,위,위,"았,조,까,르,꾸,음",큼,FALSE,6604.39999999851,no
1,3,2,debrief,kr,NA,NA,NA,NA,NA,NULL,NA,NA,NA
1,3,3,memory,kr,1,0,휴,NA,NA,NULL,NA,NA,NA
1,3,3,memory,kr,2,1,문,NA,NA,NULL,NA,NA,NA
1,3,3,memory,kr,3,2,위,NA,NA,NULL,NA,NA,NA
1,3,3,memory,kr,4,3,뜻,NA,NA,NULL,NA,NA,NA
1,3,3,memory,kr,5,4,꾸,NA,NA,NULL,NA,NA,NA
1,3,3,memory,kr,6,5,았,NA,NA,NULL,NA,NA,NA
1,3,3,updating,kr,1,4,꾸,조,NA,NULL,NA,NA,yes
1,3,3,updating,kr,2,2,위,음,NA,NULL,NA,NA,yes
1,3,3,updating,kr,3,3,뜻,큼,NA,NULL,NA,NA,yes
1,3,3,retrieval,kr,1,5,았,았,"르,까,보,뿌,효,표",았,TRUE,3520.2000000029802,no
1,3,3,retrieval,kr,2,2,위,음,"르,까,보,뿌,효,표",음,TRUE,6205,yes
1,3,3,retrieval,kr,3,0,휴,휴,"르,까,보,뿌,효,표",휴,TRUE,2463.89999999851,no
1,3,3,retrieval,kr,4,1,문,문,"르,까,보,뿌,효,표",문,TRUE,4735.60000000149,no
1,3,3,retrieval,kr,5,3,뜻,큼,"르,까,보,뿌,효,표",큼,TRUE,3580.39999999851,yes
1,3,3,retrieval,kr,6,4,꾸,조,"르,까,보,뿌,효,표",조,TRUE,3222.3000000044703,yes
1,3,3,debrief,kr,NA,NA,NA,NA,NA,NULL,NA,NA,NA
1,3,4,memory,kr,1,0,꾸,NA,NA,NULL,NA,NA,NA
1,3,4,memory,kr,2,1,위,NA,NA,NULL,NA,NA,NA
1,3,4,memory,kr,3,2,문,NA,NA,NULL,NA,NA,NA
1,3,4,memory,kr,4,3,까,NA,NA,NULL,NA,NA,NA
1,3,4,memory,kr,5,4,았,NA,NA,NULL,NA,NA,NA
1,3,4,memory,kr,6,5,조,NA,NA,NULL,NA,NA,NA
1,3,4,updating,kr,1,5,조,휴,NA,NULL,NA,NA,yes
1,3,4,updating,kr,2,0,꾸,뜻,NA,NULL,NA,NA,yes
1,3,4,updating,kr,3,3,까,보,NA,NULL,NA,NA,yes
1,3,4,retrieval,kr,1,0,꾸,뜻,"큼,뿌,르,표,음,효",뜻,TRUE,2521.2999999970198,yes
1,3,4,retrieval,kr,2,1,위,위,"큼,뿌,르,표,음,효",위,TRUE,4079.3000000044703,no
1,3,4,retrieval,kr,3,5,조,휴,"큼,뿌,르,표,음,효",았,FALSE,7245.30000000447,yes
1,3,4,retrieval,kr,4,2,문,문,"큼,뿌,르,표,음,효",문,TRUE,3570,no
1,3,4,retrieval,kr,5,4,았,았,"큼,뿌,르,표,음,효",았,TRUE,9893.20000000298,no
1,3,4,retrieval,kr,6,3,까,보,"큼,뿌,르,표,음,효",보,TRUE,7556.60000000149,yes
1,3,4,debrief,kr,NA,NA,NA,NA,NA,NULL,NA,NA,NA
1,3,5,memory,kr,1,0,았,NA,NA,NULL,NA,NA,NA
1,3,5,memory,kr,2,1,르,NA,NA,NULL,NA,NA,NA
1,3,5,memory,kr,3,2,음,NA,NA,NULL,NA,NA,NA
1,3,5,memory,kr,4,3,조,NA,NA,NULL,NA,NA,NA
1,3,5,memory,kr,5,4,큼,NA,NA,NULL,NA,NA,NA
1,3,5,memory,kr,6,5,표,NA,NA,NULL,NA,NA,NA
1,3,5,updating,kr,1,3,조,휴,NA,NULL,NA,NA,yes
1,3,5,updating,kr,2,1,르,까,NA,NULL,NA,NA,yes
1,3,5,updating,kr,3,4,큼,뜻,NA,NULL,NA,NA,yes
1,3,5,retrieval,kr,1,2,음,음,"문,보,효,꾸,위,뿌",음,TRUE,3159,no
1,3,5,retrieval,kr,2,5,표,표,"문,보,효,꾸,위,뿌",표,TRUE,3526.2999999970198,no
1,3,5,retrieval,kr,3,0,았,았,"문,보,효,꾸,위,뿌",았,TRUE,5210.29999999702,no
1,3,5,retrieval,kr,4,1,르,까,"문,보,효,꾸,위,뿌",꾸,FALSE,2771.39999999851,yes
1,3,5,retrieval,kr,5,3,조,휴,"문,보,효,꾸,위,뿌",휴,TRUE,3661.10000000149,yes
1,3,5,retrieval,kr,6,4,큼,뜻,"문,보,효,꾸,위,뿌",뜻,TRUE,3257.5999999940395,yes
1,3,5,debrief,kr,NA,NA,NA,NA,NA,NULL,NA,NA,NA
1,3,6,memory,kr,1,0,휴,NA,NA,NULL,NA,NA,NA
1,3,6,memory,kr,2,1,았,NA,NA,NULL,NA,NA,NA
1,3,6,memory,kr,3,2,문,NA,NA,NULL,NA,NA,NA
1,3,6,memory,kr,4,3,표,NA,NA,NULL,NA,NA,NA
1,3,6,memory,kr,5,4,뿌,NA,NA,NULL,NA,NA,NA
1,3,6,memory,kr,6,5,뜻,NA,NA,NULL,NA,NA,NA
1,3,6,updating,kr,1,1,았,큼,NA,NULL,NA,NA,yes
1,3,6,updating,kr,2,4,뿌,효,NA,NULL,NA,NA,yes
1,3,6,updating,kr,3,0,휴,꾸,NA,NULL,NA,NA,yes
1,3,6,retrieval,kr,1,2,문,문,"까,보,조,음,르,위",문,TRUE,7162.19999999553,no
1,3,6,retrieval,kr,2,3,표,표,"까,보,조,음,르,위",표,TRUE,2572.2000000029802,no
1,3,6,retrieval,kr,3,0,휴,꾸,"까,보,조,음,르,위",꾸,TRUE,9349.80000000447,yes
1,3,6,retrieval,kr,4,5,뜻,뜻,"까,보,조,음,르,위",뜻,TRUE,1682,no
1,3,6,retrieval,kr,5,4,뿌,효,"까,보,조,음,르,위",효,TRUE,1445.2999999970198,yes
1,3,6,retrieval,kr,6,1,았,큼,"까,보,조,음,르,위",까,FALSE,6793.20000000298,yes
1,3,6,debrief,kr,NA,NA,NA,NA,NA,NULL,NA,NA,NA
1,3,7,memory,kr,1,0,음,NA,NA,NULL,NA,NA,NA
1,3,7,memory,kr,2,1,표,NA,NA,NULL,NA,NA,NA
1,3,7,memory,kr,3,2,르,NA,NA,NULL,NA,NA,NA
1,3,7,memory,kr,4,3,문,NA,NA,NULL,NA,NA,NA
1,3,7,memory,kr,5,4,효,NA,NA,NULL,NA,NA,NA
1,3,7,memory,kr,6,5,뿌,NA,NA,NULL,NA,NA,NA
1,3,7,updating,kr,1,3,문,까,NA,NULL,NA,NA,yes
1,3,7,updating,kr,2,5,뿌,았,NA,NULL,NA,NA,yes
1,3,7,updating,kr,3,2,르,휴,NA,NULL,NA,NA,yes
1,3,7,retrieval,kr,1,0,음,음,"꾸,조,큼,보,위,뜻",음,TRUE,11005.80000000447,no
1,3,7,retrieval,kr,2,4,효,효,"꾸,조,큼,보,위,뜻",효,TRUE,7264.5,no
1,3,7,retrieval,kr,3,5,뿌,았,"꾸,조,큼,보,위,뜻",뜻,FALSE,4781,yes
1,3,7,retrieval,kr,4,2,르,휴,"꾸,조,큼,보,위,뜻",조,FALSE,5468.39999999851,yes
1,3,7,retrieval,kr,5,3,문,까,"꾸,조,큼,보,위,뜻",까,TRUE,6234.39999999851,yes
1,3,7,retrieval,kr,6,1,표,표,"꾸,조,큼,보,위,뜻",표,TRUE,1987,no
1,3,7,debrief,kr,NA,NA,NA,NA,NA,NULL,NA,NA,NA
1,3,8,memory,kr,1,0,표,NA,NA,NULL,NA,NA,NA
1,3,8,memory,kr,2,1,뿌,NA,NA,NULL,NA,NA,NA
1,3,8,memory,kr,3,2,휴,NA,NA,NULL,NA,NA,NA
1,3,8,memory,kr,4,3,르,NA,NA,NULL,NA,NA,NA
1,3,8,memory,kr,5,4,문,NA,NA,NULL,NA,NA,NA
1,3,8,memory,kr,6,5,꾸,NA,NA,NULL,NA,NA,NA
1,3,8,updating,kr,1,4,문,큼,NA,NULL,NA,NA,yes
1,3,8,updating,kr,2,2,휴,위,NA,NULL,NA,NA,yes
1,3,8,updating,kr,3,3,르,까,NA,NULL,NA,NA,yes
1,3,8,retrieval,kr,1,2,휴,위,"효,았,음,보,조,뜻",위,TRUE,2466.2999999970198,yes
1,3,8,retrieval,kr,2,3,르,까,"효,았,음,보,조,뜻",까,TRUE,2171.1999999955297,yes
1,3,8,retrieval,kr,3,4,문,큼,"효,았,음,보,조,뜻",문,FALSE,8796.19999999553,yes
1,3,8,retrieval,kr,4,1,뿌,뿌,"효,았,음,보,조,뜻",뿌,TRUE,2907.10000000149,no
1,3,8,retrieval,kr,5,0,표,표,"효,았,음,보,조,뜻",표,TRUE,1136.5,no
1,3,8,retrieval,kr,6,5,꾸,꾸,"효,았,음,보,조,뜻",음,FALSE,3128.89999999851,no
1,3,8,debrief,kr,NA,NA,NA,NA,NA,NULL,NA,NA,NA
1,4,1,memory,kr,1,0,뿌,NA,NA,NULL,NA,NA,NA
1,4,1,memory,kr,2,1,뜻,NA,NA,NULL,NA,NA,NA
1,4,1,memory,kr,3,2,꾸,NA,NA,NULL,NA,NA,NA
1,4,1,memory,kr,4,3,효,NA,NA,NULL,NA,NA,NA
1,4,1,memory,kr,5,4,조,NA,NA,NULL,NA,NA,NA
1,4,1,memory,kr,6,5,문,NA,NA,NULL,NA,NA,NA
1,4,1,updating,kr,1,5,문,표,NA,NULL,NA,NA,yes
1,4,1,updating,kr,2,4,조,았,NA,NULL,NA,NA,yes
1,4,1,updating,kr,3,2,꾸,르,NA,NULL,NA,NA,yes
1,4,1,retrieval,kr,1,0,뿌,뿌,"까,보,위,휴,음,큼",뿌,TRUE,2410.5999999940395,no
1,4,1,retrieval,kr,2,5,문,표,"까,보,위,휴,음,큼",표,TRUE,2473.7000000029802,yes
1,4,1,retrieval,kr,3,2,꾸,르,"까,보,위,휴,음,큼",르,TRUE,5509.70000000298,yes
1,4,1,retrieval,kr,4,4,조,았,"까,보,위,휴,음,큼",았,TRUE,3140.39999999851,yes
1,4,1,retrieval,kr,5,1,뜻,뜻,"까,보,위,휴,음,큼",뜻,TRUE,3772.60000000149,no
1,4,1,retrieval,kr,6,3,효,효,"까,보,위,휴,음,큼",효,TRUE,7729.70000000298,no
1,4,1,debrief,kr,NA,NA,NA,NA,NA,NULL,NA,NA,NA
1,4,2,memory,kr,1,0,음,NA,NA,NULL,NA,NA,NA
1,4,2,memory,kr,2,1,효,NA,NA,NULL,NA,NA,NA
1,4,2,memory,kr,3,2,뿌,NA,NA,NULL,NA,NA,NA
1,4,2,memory,kr,4,3,문,NA,NA,NULL,NA,NA,NA
1,4,2,memory,kr,5,4,위,NA,NA,NULL,NA,NA,NA
1,4,2,memory,kr,6,5,조,NA,NA,NULL,NA,NA,NA
1,4,2,updating,kr,1,1,효,큼,NA,NULL,NA,NA,yes
1,4,2,updating,kr,2,2,뿌,꾸,NA,NULL,NA,NA,yes
1,4,2,updating,kr,3,0,음,뜻,NA,NULL,NA,NA,yes
1,4,2,retrieval,kr,1,2,뿌,꾸,"표,르,휴,까,았,보",꾸,TRUE,2698.60000000149,yes
1,4,2,retrieval,kr,2,4,위,위,"표,르,휴,까,았,보",조,FALSE,3880.5,no
1,4,2,retrieval,kr,3,5,조,조,"표,르,휴,까,았,보",효,FALSE,8456.69999999553,no
1,4,2,retrieval,kr,4,1,효,큼,"표,르,휴,까,았,보",큼,TRUE,10965.59999999404,yes
1,4,2,retrieval,kr,5,3,문,문,"표,르,휴,까,았,보",문,TRUE,4321.80000000447,no
1,4,2,retrieval,kr,6,0,음,뜻,"표,르,휴,까,았,보",뜻,TRUE,3521.89999999851,yes
1,4,2,debrief,kr,NA,NA,NA,NA,NA,NULL,NA,NA,NA
1,4,3,memory,kr,1,0,조,NA,NA,NULL,NA,NA,NA
1,4,3,memory,kr,2,1,꾸,NA,NA,NULL,NA,NA,NA
1,4,3,memory,kr,3,2,았,NA,NA,NULL,NA,NA,NA
1,4,3,memory,kr,4,3,위,NA,NA,NULL,NA,NA,NA
1,4,3,memory,kr,5,4,큼,NA,NA,NULL,NA,NA,NA
1,4,3,memory,kr,6,5,보,NA,NA,NULL,NA,NA,NA
1,4,3,updating,kr,1,0,조,문,NA,NULL,NA,NA,yes
1,4,3,updating,kr,2,4,큼,르,NA,NULL,NA,NA,yes
1,4,3,updating,kr,3,1,꾸,까,NA,NULL,NA,NA,yes
1,4,3,retrieval,kr,1,4,큼,르,"효,뜻,음,휴,표,뿌",르,TRUE,2791.6999999955297,yes
1,4,3,retrieval,kr,2,5,보,보,"효,뜻,음,휴,표,뿌",보,TRUE,10173.59999999404,no
1,4,3,retrieval,kr,3,1,꾸,까,"효,뜻,음,휴,표,뿌",까,TRUE,2442.2000000029802,yes
1,4,3,retrieval,kr,4,2,았,았,"효,뜻,음,휴,표,뿌",꾸,FALSE,5878.4000000059605,no
1,4,3,retrieval,kr,5,3,위,위,"효,뜻,음,휴,표,뿌",음,FALSE,5024.80000000447,no
1,4,3,retrieval,kr,6,0,조,문,"효,뜻,음,휴,표,뿌",조,FALSE,2873.39999999851,yes
1,4,3,debrief,kr,NA,NA,NA,NA,NA,NULL,NA,NA,NA
1,4,4,memory,kr,1,0,조,NA,NA,NULL,NA,NA,NA
1,4,4,memory,kr,2,1,았,NA,NA,NULL,NA,NA,NA
1,4,4,memory,kr,3,2,위,NA,NA,NULL,NA,NA,NA
1,4,4,memory,kr,4,3,휴,NA,NA,NULL,NA,NA,NA
1,4,4,memory,kr,5,4,보,NA,NA,NULL,NA,NA,NA
1,4,4,memory,kr,6,5,까,NA,NA,NULL,NA,NA,NA
1,4,4,updating,kr,1,2,위,문,NA,NULL,NA,NA,yes
1,4,4,updating,kr,2,5,까,표,NA,NULL,NA,NA,yes
1,4,4,updating,kr,3,0,조,뿌,NA,NULL,NA,NA,yes
1,4,4,retrieval,kr,1,4,보,보,"음,르,뜻,큼,꾸,효",뜻,FALSE,2679.39999999851,no
1,4,4,retrieval,kr,2,2,위,문,"음,르,뜻,큼,꾸,효",표,FALSE,3345.7999999970198,yes
1,4,4,retrieval,kr,3,5,까,표,"음,르,뜻,큼,꾸,효",보,FALSE,6317.89999999851,yes
1,4,4,retrieval,kr,4,1,았,았,"음,르,뜻,큼,꾸,효",았,TRUE,4118.89999999851,no
1,4,4,retrieval,kr,5,3,휴,휴,"음,르,뜻,큼,꾸,효",휴,TRUE,6369.10000000149,no
1,4,4,retrieval,kr,6,0,조,뿌,"음,르,뜻,큼,꾸,효",뿌,TRUE,2082.8000000044703,yes
1,4,4,debrief,kr,NA,NA,NA,NA,NA,NULL,NA,NA,NA
1,4,5,memory,kr,1,0,꾸,NA,NA,NULL,NA,NA,NA
1,4,5,memory,kr,2,1,문,NA,NA,NULL,NA,NA,NA
1,4,5,memory,kr,3,2,조,NA,NA,NULL,NA,NA,NA
1,4,5,memory,kr,4,3,까,NA,NA,NULL,NA,NA,NA
1,4,5,memory,kr,5,4,효,NA,NA,NULL,NA,NA,NA
1,4,5,memory,kr,6,5,큼,NA,NA,NULL,NA,NA,NA
1,4,5,updating,kr,1,1,문,보,NA,NULL,NA,NA,yes
1,4,5,updating,kr,2,3,까,았,NA,NULL,NA,NA,yes
1,4,5,updating,kr,3,2,조,르,NA,NULL,NA,NA,yes
1,4,5,retrieval,kr,1,1,문,보,"휴,위,표,뜻,뿌,음",보,TRUE,5212.39999999851,yes
1,4,5,retrieval,kr,2,0,꾸,꾸,"휴,위,표,뜻,뿌,음",까,FALSE,3872,no
1,4,5,retrieval,kr,3,5,큼,큼,"휴,위,표,뜻,뿌,음",큼,TRUE,6299.70000000298,no
1,4,5,retrieval,kr,4,4,효,효,"휴,위,표,뜻,뿌,음",았,FALSE,3568.3000000044703,no
1,4,5,retrieval,kr,5,2,조,르,"휴,위,표,뜻,뿌,음",르,TRUE,2092.3000000044703,yes
1,4,5,retrieval,kr,6,3,까,았,"휴,위,표,뜻,뿌,음",효,FALSE,1859.2999999970198,yes
1,4,5,debrief,kr,NA,NA,NA,NA,NA,NULL,NA,NA,NA
1,4,6,memory,kr,1,0,위,NA,NA,NULL,NA,NA,NA
1,4,6,memory,kr,2,1,음,NA,NA,NULL,NA,NA,NA
1,4,6,memory,kr,3,2,표,NA,NA,NULL,NA,NA,NA
1,4,6,memory,kr,4,3,문,NA,NA,NULL,NA,NA,NA
1,4,6,memory,kr,5,4,조,NA,NA,NULL,NA,NA,NA
1,4,6,memory,kr,6,5,큼,NA,NA,NULL,NA,NA,NA
1,4,6,updating,kr,1,0,위,효,NA,NULL,NA,NA,yes
1,4,6,updating,kr,2,1,음,았,NA,NULL,NA,NA,yes
1,4,6,updating,kr,3,4,조,휴,NA,NULL,NA,NA,yes
1,4,6,retrieval,kr,1,5,큼,큼,"뿌,보,뜻,까,르,꾸",큼,TRUE,8105.20000000298,no
1,4,6,retrieval,kr,2,4,조,휴,"뿌,보,뜻,까,르,꾸",휴,TRUE,4699.19999999553,yes
1,4,6,retrieval,kr,3,1,음,았,"뿌,보,뜻,까,르,꾸",았,TRUE,1689.1000000014901,yes
1,4,6,retrieval,kr,4,2,표,표,"뿌,보,뜻,까,르,꾸",표,TRUE,3944.8000000044703,no
1,4,6,retrieval,kr,5,3,문,문,"뿌,보,뜻,까,르,꾸",뿌,FALSE,5153.10000000149,no
1,4,6,retrieval,kr,6,0,위,효,"뿌,보,뜻,까,르,꾸",효,TRUE,794.6000000014901,yes
1,4,6,debrief,kr,NA,NA,NA,NA,NA,NULL,NA,NA,NA
1,4,7,memory,kr,1,0,음,NA,NA,NULL,NA,NA,NA
1,4,7,memory,kr,2,1,위,NA,NA,NULL,NA,NA,NA
1,4,7,memory,kr,3,2,조,NA,NA,NULL,NA,NA,NA
1,4,7,memory,kr,4,3,표,NA,NA,NULL,NA,NA,NA
1,4,7,memory,kr,5,4,효,NA,NA,NULL,NA,NA,NA
1,4,7,memory,kr,6,5,보,NA,NA,NULL,NA,NA,NA
1,4,7,updating,kr,1,5,보,휴,NA,NULL,NA,NA,yes
1,4,7,updating,kr,2,2,조,았,NA,NULL,NA,NA,yes
1,4,7,updating,kr,3,0,음,까,NA,NULL,NA,NA,yes
1,4,7,retrieval,kr,1,2,조,았,"꾸,문,뜻,르,큼,뿌",았,TRUE,3995.1999999955297,yes
1,4,7,retrieval,kr,2,3,표,표,"꾸,문,뜻,르,큼,뿌",표,TRUE,2257.7999999970198,no
1,4,7,retrieval,kr,3,5,보,휴,"꾸,문,뜻,르,큼,뿌",휴,TRUE,2309.7999999970198,yes
1,4,7,retrieval,kr,4,4,효,효,"꾸,문,뜻,르,큼,뿌",효,TRUE,6239.30000000447,no
1,4,7,retrieval,kr,5,1,위,위,"꾸,문,뜻,르,큼,뿌",조,FALSE,2099,no
1,4,7,retrieval,kr,6,0,음,까,"꾸,문,뜻,르,큼,뿌",큼,FALSE,2014.5999999940395,yes
1,4,7,debrief,kr,NA,NA,NA,NA,NA,NULL,NA,NA,NA
1,4,8,memory,kr,1,0,보,NA,NA,NULL,NA,NA,NA
1,4,8,memory,kr,2,1,르,NA,NA,NULL,NA,NA,NA
1,4,8,memory,kr,3,2,조,NA,NA,NULL,NA,NA,NA
1,4,8,memory,kr,4,3,문,NA,NA,NULL,NA,NA,NA
1,4,8,memory,kr,5,4,꾸,NA,NA,NULL,NA,NA,NA
1,4,8,memory,kr,6,5,뜻,NA,NA,NULL,NA,NA,NA
1,4,8,updating,kr,1,5,뜻,음,NA,NULL,NA,NA,yes
1,4,8,updating,kr,2,3,문,았,NA,NULL,NA,NA,yes
1,4,8,updating,kr,3,2,조,까,NA,NULL,NA,NA,yes
1,4,8,retrieval,kr,1,0,보,보,"효,뿌,위,큼,표,휴",보,TRUE,7597,no
1,4,8,retrieval,kr,2,2,조,까,"효,뿌,위,큼,표,휴",꾸,FALSE,4524.39999999851,yes
1,4,8,retrieval,kr,3,5,뜻,음,"효,뿌,위,큼,표,휴",큼,FALSE,2487.89999999851,yes
1,4,8,retrieval,kr,4,1,르,르,"효,뿌,위,큼,표,휴",르,TRUE,3888,no
1,4,8,retrieval,kr,5,4,꾸,꾸,"효,뿌,위,큼,표,휴",꾸,TRUE,4027,no
1,4,8,retrieval,kr,6,3,문,았,"효,뿌,위,큼,표,휴",았,TRUE,4936.39999999851,yes
1,4,8,debrief,kr,NA,NA,NA,NA,NA,NULL,NA,NA,NA
1,5,1,memory,kr,1,0,효,NA,NA,NULL,NA,NA,NA
1,5,1,memory,kr,2,1,표,NA,NA,NULL,NA,NA,NA
1,5,1,memory,kr,3,2,르,NA,NA,NULL,NA,NA,NA
1,5,1,memory,kr,4,3,꾸,NA,NA,NULL,NA,NA,NA
1,5,1,memory,kr,5,4,큼,NA,NA,NULL,NA,NA,NA
1,5,1,memory,kr,6,5,보,NA,NA,NULL,NA,NA,NA
1,5,1,updating,kr,1,2,르,까,NA,NULL,NA,NA,yes
1,5,1,updating,kr,2,3,꾸,뿌,NA,NULL,NA,NA,yes
1,5,1,updating,kr,3,4,큼,뜻,NA,NULL,NA,NA,yes
1,5,1,retrieval,kr,1,0,효,효,"휴,위,문,조,음,았",효,TRUE,2834.60000000149,no
1,5,1,retrieval,kr,2,5,보,보,"휴,위,문,조,음,았",큼,FALSE,4574.60000000149,no
1,5,1,retrieval,kr,3,4,큼,뜻,"휴,위,문,조,음,았",뜻,TRUE,3042.89999999851,yes
1,5,1,retrieval,kr,4,2,르,까,"휴,위,문,조,음,았",까,TRUE,6332.29999999702,yes
1,5,1,retrieval,kr,5,1,표,표,"휴,위,문,조,음,았",표,TRUE,2148.89999999851,no
1,5,1,retrieval,kr,6,3,꾸,뿌,"휴,위,문,조,음,았",뿌,TRUE,1148.2999999970198,yes
1,5,1,debrief,kr,NA,NA,NA,NA,NA,NULL,NA,NA,NA
1,5,2,memory,kr,1,0,르,NA,NA,NULL,NA,NA,NA
1,5,2,memory,kr,2,1,조,NA,NA,NULL,NA,NA,NA
1,5,2,memory,kr,3,2,문,NA,NA,NULL,NA,NA,NA
1,5,2,memory,kr,4,3,뿌,NA,NA,NULL,NA,NA,NA
1,5,2,memory,kr,5,4,휴,NA,NA,NULL,NA,NA,NA
1,5,2,memory,kr,6,5,뜻,NA,NA,NULL,NA,NA,NA
1,5,2,updating,kr,1,0,르,보,NA,NULL,NA,NA,yes
1,5,2,updating,kr,2,1,조,았,NA,NULL,NA,NA,yes
1,5,2,updating,kr,3,5,뜻,음,NA,NULL,NA,NA,yes
1,5,2,retrieval,kr,1,4,휴,휴,"꾸,효,큼,위,표,까",뜻,FALSE,4742.19999999553,no
1,5,2,retrieval,kr,2,5,뜻,음,"꾸,효,큼,위,표,까",음,TRUE,3203.5,yes
1,5,2,retrieval,kr,3,0,르,보,"꾸,효,큼,위,표,까",보,TRUE,2063.5,yes
1,5,2,retrieval,kr,4,3,뿌,뿌,"꾸,효,큼,위,표,까",휴,FALSE,3455.4000000059605,no
1,5,2,retrieval,kr,5,2,문,문,"꾸,효,큼,위,표,까",문,TRUE,2515.39999999851,no
1,5,2,retrieval,kr,6,1,조,았,"꾸,효,큼,위,표,까",았,TRUE,3387.2999999970198,yes
1,5,2,debrief,kr,NA,NA,NA,NA,NA,NULL,NA,NA,NA
1,5,3,memory,kr,1,0,꾸,NA,NA,NULL,NA,NA,NA
1,5,3,memory,kr,2,1,르,NA,NA,NULL,NA,NA,NA
1,5,3,memory,kr,3,2,뿌,NA,NA,NULL,NA,NA,NA
1,5,3,memory,kr,4,3,조,NA,NA,NULL,NA,NA,NA
1,5,3,memory,kr,5,4,휴,NA,NA,NULL,NA,NA,NA
1,5,3,memory,kr,6,5,효,NA,NA,NULL,NA,NA,NA
1,5,3,updating,kr,1,4,휴,뜻,NA,NULL,NA,NA,yes
1,5,3,updating,kr,2,0,꾸,까,NA,NULL,NA,NA,yes
1,5,3,updating,kr,3,5,효,았,NA,NULL,NA,NA,yes
1,5,3,retrieval,kr,1,4,휴,뜻,"표,음,큼,보,위,문",뜻,TRUE,5791.89999999851,yes
1,5,3,retrieval,kr,2,1,르,르,"표,음,큼,보,위,문",르,TRUE,4621.79999999702,no
1,5,3,retrieval,kr,3,5,효,았,"표,음,큼,보,위,문",았,TRUE,5299.70000000298,yes
1,5,3,retrieval,kr,4,0,꾸,까,"표,음,큼,보,위,문",뿌,FALSE,8812.60000000149,yes
1,5,3,retrieval,kr,5,2,뿌,뿌,"표,음,큼,보,위,문",뿌,TRUE,8049.10000000149,no
1,5,3,retrieval,kr,6,3,조,조,"표,음,큼,보,위,문",뜻,FALSE,2930.7999999970198,no
1,5,3,debrief,kr,NA,NA,NA,NA,NA,NULL,NA,NA,NA
1,5,4,memory,kr,1,0,뿌,NA,NA,NULL,NA,NA,NA
1,5,4,memory,kr,2,1,조,NA,NA,NULL,NA,NA,NA
1,5,4,memory,kr,3,2,꾸,NA,NA,NULL,NA,NA,NA
1,5,4,memory,kr,4,3,르,NA,NA,NULL,NA,NA,NA
1,5,4,memory,kr,5,4,까,NA,NA,NULL,NA,NA,NA
1,5,4,memory,kr,6,5,보,NA,NA,NULL,NA,NA,NA
1,5,4,updating,kr,1,0,뿌,았,NA,NULL,NA,NA,yes
1,5,4,updating,kr,2,1,조,효,NA,NULL,NA,NA,yes
1,5,4,updating,kr,3,5,보,휴,NA,NULL,NA,NA,yes
1,5,4,retrieval,kr,1,4,까,까,"뜻,위,문,큼,음,표",꾸,FALSE,4446.79999999702,no
1,5,4,retrieval,kr,2,1,조,효,"뜻,위,문,큼,음,표",효,TRUE,3962.7999999970198,yes
1,5,4,retrieval,kr,3,2,꾸,꾸,"뜻,위,문,큼,음,표",꾸,TRUE,4570.70000000298,no
1,5,4,retrieval,kr,4,3,르,르,"뜻,위,문,큼,음,표",르,TRUE,2222.1999999955297,no
1,5,4,retrieval,kr,5,0,뿌,았,"뜻,위,문,큼,음,표",았,TRUE,5548.39999999851,yes
1,5,4,retrieval,kr,6,5,보,휴,"뜻,위,문,큼,음,표",휴,TRUE,2772.60000000149,yes
1,5,4,debrief,kr,NA,NA,NA,NA,NA,NULL,NA,NA,NA
1,5,5,memory,kr,1,0,보,NA,NA,NULL,NA,NA,NA
1,5,5,memory,kr,2,1,조,NA,NA,NULL,NA,NA,NA
1,5,5,memory,kr,3,2,효,NA,NA,NULL,NA,NA,NA
1,5,5,memory,kr,4,3,큼,NA,NA,NULL,NA,NA,NA
1,5,5,memory,kr,5,4,까,NA,NA,NULL,NA,NA,NA
1,5,5,memory,kr,6,5,뿌,NA,NA,NULL,NA,NA,NA
1,5,5,updating,kr,1,1,조,표,NA,NULL,NA,NA,yes
1,5,5,updating,kr,2,5,뿌,음,NA,NULL,NA,NA,yes
1,5,5,updating,kr,3,2,효,문,NA,NULL,NA,NA,yes
1,5,5,retrieval,kr,1,3,큼,큼,"았,위,휴,르,뜻,꾸",큼,TRUE,2869.5,no
1,5,5,retrieval,kr,2,1,조,표,"았,위,휴,르,뜻,꾸",까,FALSE,6614.5,yes
1,5,5,retrieval,kr,3,2,효,문,"았,위,휴,르,뜻,꾸",휴,FALSE,4074.7999999970198,yes
1,5,5,retrieval,kr,4,5,뿌,음,"았,위,휴,르,뜻,꾸",음,TRUE,3685,yes
1,5,5,retrieval,kr,5,0,보,보,"았,위,휴,르,뜻,꾸",보,TRUE,2153.60000000149,no
1,5,5,retrieval,kr,6,4,까,까,"았,위,휴,르,뜻,꾸",큼,FALSE,1161.8999999985099,no
1,5,5,debrief,kr,NA,NA,NA,NA,NA,NULL,NA,NA,NA
1,5,6,memory,kr,1,0,큼,NA,NA,NULL,NA,NA,NA
1,5,6,memory,kr,2,1,문,NA,NA,NULL,NA,NA,NA
1,5,6,memory,kr,3,2,뿌,NA,NA,NULL,NA,NA,NA
1,5,6,memory,kr,4,3,효,NA,NA,NULL,NA,NA,NA
1,5,6,memory,kr,5,4,표,NA,NA,NULL,NA,NA,NA
1,5,6,memory,kr,6,5,르,NA,NA,NULL,NA,NA,NA
1,5,6,updating,kr,1,3,효,보,NA,NULL,NA,NA,yes
1,5,6,updating,kr,2,1,문,조,NA,NULL,NA,NA,yes
1,5,6,updating,kr,3,4,표,꾸,NA,NULL,NA,NA,yes
1,5,6,retrieval,kr,1,5,르,르,"위,까,음,휴,뜻,았",르,TRUE,2090.39999999851,no
1,5,6,retrieval,kr,2,3,효,보,"위,까,음,휴,뜻,았",효,FALSE,3515.10000000149,yes
1,5,6,retrieval,kr,3,2,뿌,뿌,"위,까,음,휴,뜻,았",뿌,TRUE,3158.4000000059605,no
1,5,6,retrieval,kr,4,0,큼,큼,"위,까,음,휴,뜻,았",큼,TRUE,4230.4000000059605,no
1,5,6,retrieval,kr,5,1,문,조,"위,까,음,휴,뜻,았",조,TRUE,8839.70000000298,yes
1,5,6,retrieval,kr,6,4,표,꾸,"위,까,음,휴,뜻,았",뿌,FALSE,2699.8000000044703,yes
1,5,6,debrief,kr,NA,NA,NA,NA,NA,NULL,NA,NA,NA
1,5,7,memory,kr,1,0,뜻,NA,NA,NULL,NA,NA,NA
1,5,7,memory,kr,2,1,음,NA,NA,NULL,NA,NA,NA
1,5,7,memory,kr,3,2,문,NA,NA,NULL,NA,NA,NA
1,5,7,memory,kr,4,3,았,NA,NA,NULL,NA,NA,NA
1,5,7,memory,kr,5,4,꾸,NA,NA,NULL,NA,NA,NA
1,5,7,memory,kr,6,5,보,NA,NA,NULL,NA,NA,NA
1,5,7,updating,kr,1,1,음,큼,NA,NULL,NA,NA,yes
1,5,7,updating,kr,2,0,뜻,휴,NA,NULL,NA,NA,yes
1,5,7,updating,kr,3,5,보,위,NA,NULL,NA,NA,yes
1,5,7,retrieval,kr,1,0,뜻,휴,"뿌,까,효,조,르,표",휴,TRUE,5032.30000000447,yes
1,5,7,retrieval,kr,2,5,보,위,"뿌,까,효,조,르,표",뿌,FALSE,6643,yes
1,5,7,retrieval,kr,3,4,꾸,꾸,"뿌,까,효,조,르,표",조,FALSE,6765.5,no
1,5,7,retrieval,kr,4,2,문,문,"뿌,까,효,조,르,표",꾸,FALSE,1752.2999999970198,no
1,5,7,retrieval,kr,5,1,음,큼,"뿌,까,효,조,르,표",음,FALSE,3811.60000000149,yes
1,5,7,retrieval,kr,6,3,았,았,"뿌,까,효,조,르,표",효,FALSE,2587.89999999851,no
1,5,7,debrief,kr,NA,NA,NA,NA,NA,NULL,NA,NA,NA
1,5,8,memory,kr,1,0,음,NA,NA,NULL,NA,NA,NA
1,5,8,memory,kr,2,1,았,NA,NA,NULL,NA,NA,NA
1,5,8,memory,kr,3,2,뜻,NA,NA,NULL,NA,NA,NA
1,5,8,memory,kr,4,3,조,NA,NA,NULL,NA,NA,NA
1,5,8,memory,kr,5,4,효,NA,NA,NULL,NA,NA,NA
1,5,8,memory,kr,6,5,표,NA,NA,NULL,NA,NA,NA
1,5,8,updating,kr,1,5,표,까,NA,NULL,NA,NA,yes
1,5,8,updating,kr,2,4,효,문,NA,NULL,NA,NA,yes
1,5,8,updating,kr,3,3,조,꾸,NA,NULL,NA,NA,yes
1,5,8,retrieval,kr,1,2,뜻,뜻,"휴,뿌,보,큼,위,르",뜻,TRUE,2991.8000000044703,no
1,5,8,retrieval,kr,2,4,효,문,"휴,뿌,보,큼,위,르",휴,FALSE,7496.80000000447,yes
1,5,8,retrieval,kr,3,5,표,까,"휴,뿌,보,큼,위,르",까,TRUE,9425.89999999851,yes
1,5,8,retrieval,kr,4,0,음,음,"휴,뿌,보,큼,위,르",음,TRUE,2534.3000000044703,no
1,5,8,retrieval,kr,5,1,았,았,"휴,뿌,보,큼,위,르",았,TRUE,2143.2999999970198,no
1,5,8,retrieval,kr,6,3,조,꾸,"휴,뿌,보,큼,위,르",큼,FALSE,1910.8000000044703,yes
1,5,8,debrief,kr,NA,NA,NA,NA,NA,NULL,NA,NA,NA
