participant,expPart,block,trial,condition,screenID,stepID,position,initial_item,final_item,npl_items,answer,acc,rt,updPos
1,training,1,1,training,memory,1,0,았,NA,NA,NULL,NA,NA,NA
1,training,1,1,training,memory,2,1,뜻,NA,NA,NULL,NA,NA,NA
1,training,1,1,training,memory,3,2,까,NA,NA,NULL,NA,NA,NA
1,training,1,1,training,memory,4,3,표,NA,NA,NULL,NA,NA,NA
1,training,1,1,training,memory,5,4,위,NA,NA,NULL,NA,NA,NA
1,training,1,1,training,memory,6,5,뿌,NA,NA,NULL,NA,NA,NA
1,training,1,1,training,updating,1,5,뿌,문,NA,NULL,NA,NA,yes
1,training,1,1,training,updating,2,3,표,르,NA,NULL,NA,NA,yes
1,training,1,1,training,updating,3,2,까,조,NA,NULL,NA,NA,yes
1,training,1,1,training,retrieval,1,4,위,위,큼;보;효;파;견;없,위,TRUE,5084.400000035763,no
1,training,1,1,training,retrieval,2,0,았,았,큼;보;효;파;견;없,큼,FALSE,4009.100000023842,no
1,training,1,1,training,retrieval,3,1,뜻,뜻,큼;보;효;파;견;없,보,FALSE,636.4000000357628,no
1,training,1,1,training,retrieval,4,5,뿌,문,큼;보;효;파;견;없,효,FALSE,507.80000001192093,yes
1,training,1,1,training,retrieval,5,3,표,르,큼;보;효;파;견;없,뜻,FALSE,444.0999999642372,yes
1,training,1,1,training,retrieval,6,2,까,조,큼;보;효;파;견;없,까,FALSE,470.60000002384186,yes
1,training,1,2,training,memory,1,0,큼,NA,NA,NULL,NA,NA,NA
1,training,1,2,training,memory,2,1,보,NA,NA,NULL,NA,NA,NA
1,training,1,2,training,memory,3,2,표,NA,NA,NULL,NA,NA,NA
1,training,1,2,training,memory,4,3,까,NA,NA,NULL,NA,NA,NA
1,training,1,2,training,memory,5,4,조,NA,NA,NULL,NA,NA,NA
1,training,1,2,training,memory,6,5,뿌,NA,NA,NULL,NA,NA,NA
1,training,1,2,training,updating,1,4,조,문,NA,NULL,NA,NA,yes
1,training,1,2,training,updating,2,0,큼,효,NA,NULL,NA,NA,yes
1,training,1,2,training,updating,3,1,보,르,NA,NULL,NA,NA,yes
1,training,1,2,training,retrieval,1,1,보,르,위;았;뜻;런;찬;무,르,TRUE,2151.399999976158,yes
1,training,1,2,training,retrieval,2,4,조,문,위;았;뜻;런;찬;무,문,TRUE,2237.599999964237,yes
1,training,1,2,training,retrieval,3,0,큼,효,위;았;뜻;런;찬;무,보,FALSE,446.2000000476837,yes
1,training,1,2,training,retrieval,4,2,표,표,위;았;뜻;런;찬;무,큼,FALSE,414.4000000357628,no
1,training,1,2,training,retrieval,5,5,뿌,뿌,위;았;뜻;런;찬;무,뜻,FALSE,579.3999999761581,no
1,training,1,2,training,retrieval,6,3,까,까,위;았;뜻;런;찬;무,았,FALSE,475.30000001192093,no
1,training,1,3,training,memory,1,0,효,NA,NA,NULL,NA,NA,NA
1,training,1,3,training,memory,2,1,뜻,NA,NA,NULL,NA,NA,NA
1,training,1,3,training,memory,3,2,뿌,NA,NA,NULL,NA,NA,NA
1,training,1,3,training,memory,4,3,보,NA,NA,NULL,NA,NA,NA
1,training,1,3,training,memory,5,4,위,NA,NA,NULL,NA,NA,NA
1,training,1,3,training,memory,6,5,조,NA,NA,NULL,NA,NA,NA
1,training,1,3,training,updating,1,1,뜻,르,NA,NULL,NA,NA,yes
1,training,1,3,training,updating,2,0,효,표,NA,NULL,NA,NA,yes
1,training,1,3,training,updating,3,3,보,까,NA,NULL,NA,NA,yes
1,training,1,3,training,retrieval,1,2,뿌,뿌,문;큼;았;있;준;느,큼,FALSE,2840.399999976158,no
1,training,1,3,training,retrieval,2,5,조,조,문;큼;았;있;준;느,느,FALSE,939.8999999761581,no
1,training,1,3,training,retrieval,3,1,뜻,르,문;큼;았;있;준;느,효,FALSE,549,yes
1,training,1,3,training,retrieval,4,4,위,위,문;큼;았;있;준;느,뜻,FALSE,930.6999999880791,no
1,training,1,3,training,retrieval,5,0,효,표,문;큼;았;있;준;느,표,TRUE,2826.7000000476837,yes
1,training,1,3,training,retrieval,6,3,보,까,문;큼;았;있;준;느,까,TRUE,2627.400000035763,yes
1,training,1,4,training,memory,1,0,르,NA,NA,NULL,NA,NA,NA
1,training,1,4,training,memory,2,1,큼,NA,NA,NULL,NA,NA,NA
1,training,1,4,training,memory,3,2,위,NA,NA,NULL,NA,NA,NA
1,training,1,4,training,memory,4,3,조,NA,NA,NULL,NA,NA,NA
1,training,1,4,training,memory,5,4,았,NA,NA,NULL,NA,NA,NA
1,training,1,4,training,memory,6,5,보,NA,NA,NULL,NA,NA,NA
1,training,1,4,training,updating,1,1,큼,효,NA,NULL,NA,NA,yes
1,training,1,4,training,updating,2,0,르,문,NA,NULL,NA,NA,yes
1,training,1,4,training,updating,3,3,조,뜻,NA,NULL,NA,NA,yes
1,training,1,4,training,retrieval,1,5,보,보,까;뿌;표;점;듯;는,는,FALSE,1417.199999988079,no
1,training,1,4,training,retrieval,2,1,큼,효,까;뿌;표;점;듯;는,효,TRUE,3373.2000000476837,yes
1,training,1,4,training,retrieval,3,4,았,았,까;뿌;표;점;듯;는,보,FALSE,2255.599999964237,no
1,training,1,4,training,retrieval,4,2,위,위,까;뿌;표;점;듯;는,큼,FALSE,1054.199999988079,no
1,training,1,4,training,retrieval,5,0,르,문,까;뿌;표;점;듯;는,큼,FALSE,4427.900000035763,yes
1,training,1,4,training,retrieval,6,3,조,뜻,까;뿌;표;점;듯;는,뜻,TRUE,1650,yes
1,training,1,5,training,memory,1,0,았,NA,NA,NULL,NA,NA,NA
1,training,1,5,training,memory,2,1,뿌,NA,NA,NULL,NA,NA,NA
1,training,1,5,training,memory,3,2,까,NA,NA,NULL,NA,NA,NA
1,training,1,5,training,memory,4,3,위,NA,NA,NULL,NA,NA,NA
1,training,1,5,training,memory,5,4,큼,NA,NA,NULL,NA,NA,NA
1,training,1,5,training,memory,6,5,보,NA,NA,NULL,NA,NA,NA
1,training,1,5,training,updating,1,4,큼,문,NA,NULL,NA,NA,yes
1,training,1,5,training,updating,2,2,까,뜻,NA,NULL,NA,NA,yes
1,training,1,5,training,updating,3,0,았,표,NA,NULL,NA,NA,yes
1,training,1,5,training,retrieval,1,1,뿌,뿌,조;효;르;형;암;죄,조,FALSE,1278.8999999761581,no
1,training,1,5,training,retrieval,2,4,큼,문,조;효;르;형;암;죄,뜻,FALSE,3436.5,yes
1,training,1,5,training,retrieval,3,3,위,위,조;효;르;형;암;죄,보,FALSE,1039.300000011921,no
1,training,1,5,training,retrieval,4,0,았,표,조;효;르;형;암;죄,문,FALSE,7401.300000011921,yes
1,training,1,5,training,retrieval,5,2,까,뜻,조;효;르;형;암;죄,뜻,TRUE,4767,yes
1,training,1,5,training,retrieval,6,5,보,보,조;효;르;형;암;죄,았,FALSE,1194.300000011921,no
1,training,2,6,training,memory,1,0,효,NA,NA,NULL,NA,NA,NA
1,training,2,6,training,memory,2,1,조,NA,NA,NULL,NA,NA,NA
1,training,2,6,training,memory,3,2,뜻,NA,NA,NULL,NA,NA,NA
1,training,2,6,training,memory,4,3,표,NA,NA,NULL,NA,NA,NA
1,training,2,6,training,memory,5,4,았,NA,NA,NULL,NA,NA,NA
1,training,2,6,training,memory,6,5,큼,NA,NA,NULL,NA,NA,NA
1,training,2,6,training,updating,1,2,뜻,보,NA,NULL,NA,NA,yes
1,training,2,6,training,updating,2,4,았,위,NA,NULL,NA,NA,yes
1,training,2,6,training,updating,3,5,큼,르,NA,NULL,NA,NA,yes
1,training,2,6,training,retrieval,1,5,큼,르,문;뿌;까;워;둘;삼,삼,FALSE,3524.900000035763,yes
1,training,2,6,training,retrieval,2,2,뜻,보,문;뿌;까;워;둘;삼,보,TRUE,4633.300000011921,yes
1,training,2,6,training,retrieval,3,4,았,위,문;뿌;까;워;둘;삼,조,FALSE,1349.8999999761581,yes
1,training,2,6,training,retrieval,4,1,조,조,문;뿌;까;워;둘;삼,조,TRUE,3129.300000011921,no
1,training,2,6,training,retrieval,5,0,효,효,문;뿌;까;워;둘;삼,효,TRUE,1156.699999988079,no
1,training,2,6,training,retrieval,6,3,표,표,문;뿌;까;워;둘;삼,큼,FALSE,971.3000000119209,no
1,training,2,7,training,memory,1,0,위,NA,NA,NULL,NA,NA,NA
1,training,2,7,training,memory,2,1,효,NA,NA,NULL,NA,NA,NA
1,training,2,7,training,memory,3,2,조,NA,NA,NULL,NA,NA,NA
1,training,2,7,training,memory,4,3,뜻,NA,NA,NULL,NA,NA,NA
1,training,2,7,training,memory,5,4,았,NA,NA,NULL,NA,NA,NA
1,training,2,7,training,memory,6,5,뿌,NA,NA,NULL,NA,NA,NA
1,training,2,7,training,updating,1,5,뿌,큼,NA,NULL,NA,NA,yes
1,training,2,7,training,updating,2,2,조,표,NA,NULL,NA,NA,yes
1,training,2,7,training,updating,3,4,았,까,NA,NULL,NA,NA,yes
1,training,2,7,training,retrieval,1,4,았,까,르;문;보;렌;야;최,최,FALSE,4606.899999976158,yes
1,training,2,7,training,retrieval,2,2,조,표,르;문;보;렌;야;최,뜻,FALSE,11331.599999964237,yes
1,training,2,7,training,retrieval,3,0,위,위,르;문;보;렌;야;최,위,TRUE,1614.199999988079,no
1,training,2,7,training,retrieval,4,3,뜻,뜻,르;문;보;렌;야;최,까,FALSE,4085,no
1,training,2,7,training,retrieval,5,1,효,효,르;문;보;렌;야;최,효,TRUE,6693.399999976158,no
1,training,2,7,training,retrieval,6,5,뿌,큼,르;문;보;렌;야;최,위,FALSE,1042.199999988079,yes
1,training,2,8,training,memory,1,0,뜻,NA,NA,NULL,NA,NA,NA
1,training,2,8,training,memory,2,1,효,NA,NA,NULL,NA,NA,NA
1,training,2,8,training,memory,3,2,큼,NA,NA,NULL,NA,NA,NA
1,training,2,8,training,memory,4,3,조,NA,NA,NULL,NA,NA,NA
1,training,2,8,training,memory,5,4,았,NA,NA,NULL,NA,NA,NA
1,training,2,8,training,memory,6,5,뿌,NA,NA,NULL,NA,NA,NA
1,training,2,8,training,updating,1,5,뿌,표,NA,NULL,NA,NA,yes
1,training,2,8,training,updating,2,2,큼,르,NA,NULL,NA,NA,yes
1,training,2,8,training,updating,3,3,조,위,NA,NULL,NA,NA,yes
1,training,2,8,training,retrieval,1,4,았,았,까;문;보;컨;콤;평,평,FALSE,1069.199999988079,no
1,training,2,8,training,retrieval,2,5,뿌,표,까;문;보;컨;콤;평,뜻,FALSE,525.4000000357628,yes
1,training,2,8,training,retrieval,3,2,큼,르,까;문;보;컨;콤;평,르,TRUE,2978.300000011921,yes
1,training,2,8,training,retrieval,4,3,조,위,까;문;보;컨;콤;평,위,TRUE,2134.399999976158,yes
1,training,2,8,training,retrieval,5,0,뜻,뜻,까;문;보;컨;콤;평,뜻,TRUE,5718.5,no
1,training,2,8,training,retrieval,6,1,효,효,까;문;보;컨;콤;평,효,TRUE,957,no
1,training,2,9,training,memory,1,0,위,NA,NA,NULL,NA,NA,NA
1,training,2,9,training,memory,2,1,문,NA,NA,NULL,NA,NA,NA
1,training,2,9,training,memory,3,2,효,NA,NA,NULL,NA,NA,NA
1,training,2,9,training,memory,4,3,보,NA,NA,NULL,NA,NA,NA
1,training,2,9,training,memory,5,4,까,NA,NA,NULL,NA,NA,NA
1,training,2,9,training,memory,6,5,았,NA,NA,NULL,NA,NA,NA
1,training,2,9,training,updating,1,0,위,표,NA,NULL,NA,NA,yes
1,training,2,9,training,updating,2,1,문,뿌,NA,NULL,NA,NA,yes
1,training,2,9,training,updating,3,2,효,큼,NA,NULL,NA,NA,yes
1,training,2,9,training,retrieval,1,1,문,뿌,뜻;조;르;된;이;론,뿌,TRUE,2471.600000023842,yes
1,training,2,9,training,retrieval,2,5,았,았,뜻;조;르;된;이;론,았,TRUE,1762.5,no
1,training,2,9,training,retrieval,3,3,보,보,뜻;조;르;된;이;론,론,FALSE,1828.5999999642372,no
1,training,2,9,training,retrieval,4,0,위,표,뜻;조;르;된;이;론,표,TRUE,4656.600000023842,yes
1,training,2,9,training,retrieval,5,4,까,까,뜻;조;르;된;이;론,문,FALSE,1609.2999999523163,no
1,training,2,9,training,retrieval,6,2,효,큼,뜻;조;르;된;이;론,론,FALSE,3701.900000035763,yes
1,training,2,10,training,memory,1,0,문,NA,NA,NULL,NA,NA,NA
1,training,2,10,training,memory,2,1,표,NA,NA,NULL,NA,NA,NA
1,training,2,10,training,memory,3,2,효,NA,NA,NULL,NA,NA,NA
1,training,2,10,training,memory,4,3,르,NA,NA,NULL,NA,NA,NA
1,training,2,10,training,memory,5,4,뜻,NA,NA,NULL,NA,NA,NA
1,training,2,10,training,memory,6,5,뿌,NA,NA,NULL,NA,NA,NA
1,training,2,10,training,updating,1,0,문,위,NA,NULL,NA,NA,yes
1,training,2,10,training,updating,2,4,뜻,보,NA,NULL,NA,NA,yes
1,training,2,10,training,updating,3,1,표,큼,NA,NULL,NA,NA,yes
1,training,2,10,training,retrieval,1,1,표,큼,조;까;았;례;밝;자,까,FALSE,1252.3999999761581,yes
1,training,2,10,training,retrieval,2,3,르,르,조;까;았;례;밝;자,르,TRUE,2323.099999964237,no
1,training,2,10,training,retrieval,3,2,효,효,조;까;았;례;밝;자,효,TRUE,7680.300000011921,no
1,training,2,10,training,retrieval,4,5,뿌,뿌,조;까;았;례;밝;자,뿌,TRUE,2344,no
1,training,2,10,training,retrieval,5,4,뜻,보,조;까;았;례;밝;자,문,FALSE,607.8000000119209,yes
1,training,2,10,training,retrieval,6,0,문,위,조;까;았;례;밝;자,자,FALSE,369.9000000357628,yes
1,training,3,11,training,memory,1,0,았,NA,NA,NULL,NA,NA,NA
1,training,3,11,training,memory,2,1,표,NA,NA,NULL,NA,NA,NA
1,training,3,11,training,memory,3,2,효,NA,NA,NULL,NA,NA,NA
1,training,3,11,training,memory,4,3,뿌,NA,NA,NULL,NA,NA,NA
1,training,3,11,training,memory,5,4,문,NA,NA,NULL,NA,NA,NA
1,training,3,11,training,memory,6,5,르,NA,NA,NULL,NA,NA,NA
1,training,3,11,training,updating,1,5,르,뜻,NA,NULL,NA,NA,yes
1,training,3,11,training,updating,2,1,표,큼,NA,NULL,NA,NA,yes
1,training,3,11,training,updating,3,3,뿌,조,NA,NULL,NA,NA,yes
1,training,3,11,training,retrieval,1,5,르,뜻,위;보;까;높;렵;힘,았,FALSE,1156.800000011921,yes
1,training,3,11,training,retrieval,2,0,았,았,위;보;까;높;렵;힘,았,TRUE,1033.8999999761581,no
1,training,3,11,training,retrieval,3,2,효,효,위;보;까;높;렵;힘,조,FALSE,4743.199999988079,no
1,training,3,11,training,retrieval,4,3,뿌,조,위;보;까;높;렵;힘,조,TRUE,1244.199999988079,yes
1,training,3,11,training,retrieval,5,1,표,큼,위;보;까;높;렵;힘,뜻,FALSE,1206.199999988079,yes
1,training,3,11,training,retrieval,6,4,문,문,위;보;까;높;렵;힘,르,FALSE,513.3000000119209,no
1,training,3,12,training,memory,1,0,위,NA,NA,NULL,NA,NA,NA
1,training,3,12,training,memory,2,1,았,NA,NA,NULL,NA,NA,NA
1,training,3,12,training,memory,3,2,뜻,NA,NA,NULL,NA,NA,NA
1,training,3,12,training,memory,4,3,조,NA,NA,NULL,NA,NA,NA
1,training,3,12,training,memory,5,4,보,NA,NA,NULL,NA,NA,NA
1,training,3,12,training,memory,6,5,르,NA,NA,NULL,NA,NA,NA
1,training,3,12,training,updating,1,0,위,큼,NA,NULL,NA,NA,yes
1,training,3,12,training,updating,2,5,르,까,NA,NULL,NA,NA,yes
1,training,3,12,training,updating,3,2,뜻,뿌,NA,NULL,NA,NA,yes
1,training,3,12,training,retrieval,1,2,뜻,뿌,표;문;효;컫;실;니,뿌,TRUE,4122.100000023842,yes
1,training,3,12,training,retrieval,2,1,았,았,표;문;효;컫;실;니,았,TRUE,1520.1000000238419,no
1,training,3,12,training,retrieval,3,3,조,조,표;문;효;컫;실;니,조,TRUE,1823.699999988079,no
1,training,3,12,training,retrieval,4,5,르,까,표;문;효;컫;실;니,효,FALSE,2981.399999976158,yes
1,training,3,12,training,retrieval,5,4,보,보,표;문;효;컫;실;니,위,FALSE,613.6000000238419,no
1,training,3,12,training,retrieval,6,0,위,큼,표;문;효;컫;실;니,문,FALSE,284.19999998807907,yes
1,training,3,13,training,memory,1,0,뜻,NA,NA,NULL,NA,NA,NA
1,training,3,13,training,memory,2,1,표,NA,NA,NULL,NA,NA,NA
1,training,3,13,training,memory,3,2,큼,NA,NA,NULL,NA,NA,NA
1,training,3,13,training,memory,4,3,뿌,NA,NA,NULL,NA,NA,NA
1,training,3,13,training,memory,5,4,효,NA,NA,NULL,NA,NA,NA
1,training,3,13,training,memory,6,5,문,NA,NA,NULL,NA,NA,NA
1,training,3,13,training,updating,1,5,문,보,NA,NULL,NA,NA,yes
1,training,3,13,training,updating,2,2,큼,까,NA,NULL,NA,NA,yes
1,training,3,13,training,updating,3,1,표,위,NA,NULL,NA,NA,yes
1,training,3,13,training,retrieval,1,0,뜻,뜻,조;르;았;께;디;방,뜻,TRUE,4586.799999952316,no
1,training,3,13,training,retrieval,2,3,뿌,뿌,조;르;았;께;디;방,방,FALSE,2601.2000000476837,no
1,training,3,13,training,retrieval,3,1,표,위,조;르;았;께;디;방,위,TRUE,1997.699999988079,yes
1,training,3,13,training,retrieval,4,2,큼,까,조;르;았;께;디;방,까,TRUE,3833.600000023842,yes
1,training,3,13,training,retrieval,5,5,문,보,조;르;았;께;디;방,까,FALSE,344.19999998807907,yes
1,training,3,13,training,retrieval,6,4,효,효,조;르;았;께;디;방,보,FALSE,645.1999999880791,no
1,training,3,14,training,memory,1,0,뿌,NA,NA,NULL,NA,NA,NA
1,training,3,14,training,memory,2,1,까,NA,NA,NULL,NA,NA,NA
1,training,3,14,training,memory,3,2,효,NA,NA,NULL,NA,NA,NA
1,training,3,14,training,memory,4,3,큼,NA,NA,NULL,NA,NA,NA
1,training,3,14,training,memory,5,4,위,NA,NA,NULL,NA,NA,NA
1,training,3,14,training,memory,6,5,표,NA,NA,NULL,NA,NA,NA
1,training,3,14,training,updating,1,4,위,았,NA,NULL,NA,NA,yes
1,training,3,14,training,updating,2,3,큼,보,NA,NULL,NA,NA,yes
1,training,3,14,training,updating,3,1,까,르,NA,NULL,NA,NA,yes
1,training,3,14,training,retrieval,1,3,큼,보,조;뜻;문;족;곳;가,가,FALSE,1968.3999999761581,yes
1,training,3,14,training,retrieval,2,4,위,았,조;뜻;문;족;곳;가,뿌,FALSE,1487.1000000238419,yes
1,training,3,14,training,retrieval,3,0,뿌,뿌,조;뜻;문;족;곳;가,뿌,TRUE,822.1999999880791,no
1,training,3,14,training,retrieval,4,1,까,르,조;뜻;문;족;곳;가,르,TRUE,1964.5999999642372,yes
1,training,3,14,training,retrieval,5,2,효,효,조;뜻;문;족;곳;가,문,FALSE,923.5,no
1,training,3,14,training,retrieval,6,5,표,표,조;뜻;문;족;곳;가,까,FALSE,477.4000000357628,no
1,training,3,15,training,memory,1,0,위,NA,NA,NULL,NA,NA,NA
1,training,3,15,training,memory,2,1,뜻,NA,NA,NULL,NA,NA,NA
1,training,3,15,training,memory,3,2,까,NA,NA,NULL,NA,NA,NA
1,training,3,15,training,memory,4,3,표,NA,NA,NULL,NA,NA,NA
1,training,3,15,training,memory,5,4,조,NA,NA,NULL,NA,NA,NA
1,training,3,15,training,memory,6,5,보,NA,NA,NULL,NA,NA,NA
1,training,3,15,training,updating,1,1,뜻,효,NA,NULL,NA,NA,yes
1,training,3,15,training,updating,2,2,까,았,NA,NULL,NA,NA,yes
1,training,3,15,training,updating,3,4,조,큼,NA,NULL,NA,NA,yes
1,training,3,15,training,retrieval,1,1,뜻,효,문;르;뿌;승;증;웠,효,TRUE,5425.400000035763,yes
1,training,3,15,training,retrieval,2,5,보,보,문;르;뿌;승;증;웠,위,FALSE,1168.300000011921,no
1,training,3,15,training,retrieval,3,2,까,았,문;르;뿌;승;증;웠,았,TRUE,4488.800000011921,yes
1,training,3,15,training,retrieval,4,4,조,큼,문;르;뿌;승;증;웠,웠,FALSE,1398.6000000238419,yes
1,training,3,15,training,retrieval,5,3,표,표,문;르;뿌;승;증;웠,표,TRUE,1604.4000000357628,no
1,training,3,15,training,retrieval,6,0,위,위,문;르;뿌;승;증;웠,위,TRUE,1327.5,no
1,training,4,16,training,memory,1,0,문,NA,NA,NULL,NA,NA,NA
1,training,4,16,training,memory,2,1,뜻,NA,NA,NULL,NA,NA,NA
1,training,4,16,training,memory,3,2,효,NA,NA,NULL,NA,NA,NA
1,training,4,16,training,memory,4,3,뿌,NA,NA,NULL,NA,NA,NA
1,training,4,16,training,memory,5,4,르,NA,NA,NULL,NA,NA,NA
1,training,4,16,training,memory,6,5,위,NA,NA,NULL,NA,NA,NA
1,training,4,16,training,updating,1,5,위,표,NA,NULL,NA,NA,yes
1,training,4,16,training,updating,2,1,뜻,조,NA,NULL,NA,NA,yes
1,training,4,16,training,updating,3,0,문,았,NA,NULL,NA,NA,yes
1,training,4,16,training,retrieval,1,2,효,효,큼;까;보;같;도;떠,뿌,FALSE,2615.300000011921,no
1,training,4,16,training,retrieval,2,5,위,표,큼;까;보;같;도;떠,위,FALSE,2221.5,yes
1,training,4,16,training,retrieval,3,4,르,르,큼;까;보;같;도;떠,표,FALSE,3009.2999999523163,no
1,training,4,16,training,retrieval,4,3,뿌,뿌,큼;까;보;같;도;떠,르,FALSE,7769.600000023842,no
1,training,4,16,training,retrieval,5,1,뜻,조,큼;까;보;같;도;떠,조,TRUE,2245.199999988079,yes
1,training,4,16,training,retrieval,6,0,문,았,큼;까;보;같;도;떠,위,FALSE,1555.5,yes
1,training,4,17,training,memory,1,0,르,NA,NA,NULL,NA,NA,NA
1,training,4,17,training,memory,2,1,았,NA,NA,NULL,NA,NA,NA
1,training,4,17,training,memory,3,2,까,NA,NA,NULL,NA,NA,NA
1,training,4,17,training,memory,4,3,조,NA,NA,NULL,NA,NA,NA
1,training,4,17,training,memory,5,4,표,NA,NA,NULL,NA,NA,NA
1,training,4,17,training,memory,6,5,뿌,NA,NA,NULL,NA,NA,NA
1,training,4,17,training,updating,1,0,르,효,NA,NULL,NA,NA,yes
1,training,4,17,training,updating,2,4,표,뜻,NA,NULL,NA,NA,yes
1,training,4,17,training,updating,3,3,조,위,NA,NULL,NA,NA,yes
1,training,4,17,training,retrieval,1,2,까,까,문;보;큼;치;칭;예,까,TRUE,7617.5,no
1,training,4,17,training,retrieval,2,5,뿌,뿌,문;보;큼;치;칭;예,표,FALSE,1338,no
1,training,4,17,training,retrieval,3,4,표,뜻,문;보;큼;치;칭;예,예,FALSE,1322.2000000476837,yes
1,training,4,17,training,retrieval,4,1,았,았,문;보;큼;치;칭;예,았,TRUE,1811.5,no
1,training,4,17,training,retrieval,5,3,조,위,문;보;큼;치;칭;예,위,TRUE,2195.300000011921,yes
1,training,4,17,training,retrieval,6,0,르,효,문;보;큼;치;칭;예,효,TRUE,2931.900000035763,yes
1,training,4,18,training,memory,1,0,효,NA,NA,NULL,NA,NA,NA
1,training,4,18,training,memory,2,1,르,NA,NA,NULL,NA,NA,NA
1,training,4,18,training,memory,3,2,위,NA,NA,NULL,NA,NA,NA
1,training,4,18,training,memory,4,3,았,NA,NA,NULL,NA,NA,NA
1,training,4,18,training,memory,5,4,뿌,NA,NA,NULL,NA,NA,NA
1,training,4,18,training,memory,6,5,표,NA,NA,NULL,NA,NA,NA
1,training,4,18,training,updating,1,4,뿌,문,NA,NULL,NA,NA,yes
1,training,4,18,training,updating,2,3,았,보,NA,NULL,NA,NA,yes
1,training,4,18,training,updating,3,1,르,까,NA,NULL,NA,NA,yes
1,training,4,18,training,retrieval,1,5,표,표,큼;뜻;조;징;마;규,규,FALSE,1640,no
1,training,4,18,training,retrieval,2,1,르,까,큼;뜻;조;징;마;규,까,TRUE,2377.300000011921,yes
1,training,4,18,training,retrieval,3,4,뿌,문,큼;뜻;조;징;마;규,규,FALSE,1615.5999999642372,yes
1,training,4,18,training,retrieval,4,0,효,효,큼;뜻;조;징;마;규,효,TRUE,1917.199999988079,no
1,training,4,18,training,retrieval,5,3,았,보,큼;뜻;조;징;마;규,보,TRUE,5484.199999988079,yes
1,training,4,18,training,retrieval,6,2,위,위,큼;뜻;조;징;마;규,위,TRUE,1985.699999988079,no
1,training,4,19,training,memory,1,0,았,NA,NA,NULL,NA,NA,NA
1,training,4,19,training,memory,2,1,뜻,NA,NA,NULL,NA,NA,NA
1,training,4,19,training,memory,3,2,르,NA,NA,NULL,NA,NA,NA
1,training,4,19,training,memory,4,3,위,NA,NA,NULL,NA,NA,NA
1,training,4,19,training,memory,5,4,까,NA,NA,NULL,NA,NA,NA
1,training,4,19,training,memory,6,5,문,NA,NA,NULL,NA,NA,NA
1,training,4,19,training,updating,1,2,르,표,NA,NULL,NA,NA,yes
1,training,4,19,training,updating,2,1,뜻,큼,NA,NULL,NA,NA,yes
1,training,4,19,training,updating,3,4,까,보,NA,NULL,NA,NA,yes
1,training,4,19,training,retrieval,1,1,뜻,큼,효;뿌;조;날;특;극,효,FALSE,1297.1000000238419,yes
1,training,4,19,training,retrieval,2,5,문,문,효;뿌;조;날;특;극,극,FALSE,2513.400000035763,no
1,training,4,19,training,retrieval,3,3,위,위,효;뿌;조;날;특;극,위,TRUE,3370.100000023842,no
1,training,4,19,training,retrieval,4,0,았,았,효;뿌;조;날;특;극,았,TRUE,3277.699999988079,no
1,training,4,19,training,retrieval,5,2,르,표,효;뿌;조;날;특;극,표,TRUE,1826.8999999761581,yes
1,training,4,19,training,retrieval,6,4,까,보,효;뿌;조;날;특;극,표,FALSE,3262.800000011921,yes
1,training,4,20,training,memory,1,0,보,NA,NA,NULL,NA,NA,NA
1,training,4,20,training,memory,2,1,조,NA,NA,NULL,NA,NA,NA
1,training,4,20,training,memory,3,2,까,NA,NA,NULL,NA,NA,NA
1,training,4,20,training,memory,4,3,큼,NA,NA,NULL,NA,NA,NA
1,training,4,20,training,memory,5,4,르,NA,NA,NULL,NA,NA,NA
1,training,4,20,training,memory,6,5,위,NA,NA,NULL,NA,NA,NA
1,training,4,20,training,updating,1,3,큼,표,NA,NULL,NA,NA,yes
1,training,4,20,training,updating,2,1,조,문,NA,NULL,NA,NA,yes
1,training,4,20,training,updating,3,5,위,뿌,NA,NULL,NA,NA,yes
1,training,4,20,training,retrieval,1,0,보,보,뜻;았;효;드;눈;낼,보,TRUE,2130.699999988079,no
1,training,4,20,training,retrieval,2,1,조,문,뜻;았;효;드;눈;낼,낼,FALSE,955.7999999523163,yes
1,training,4,20,training,retrieval,3,3,큼,표,뜻;았;효;드;눈;낼,위,FALSE,2684.399999976158,yes
1,training,4,20,training,retrieval,4,5,위,뿌,뜻;았;효;드;눈;낼,르,FALSE,1373.1000000238419,yes
1,training,4,20,training,retrieval,5,2,까,까,뜻;았;효;드;눈;낼,까,TRUE,4282.600000023842,no
1,training,4,20,training,retrieval,6,4,르,르,뜻;았;효;드;눈;낼,르,TRUE,5189.800000011921,no
1,training,5,21,training,memory,1,0,표,NA,NA,NULL,NA,NA,NA
1,training,5,21,training,memory,2,1,큼,NA,NA,NULL,NA,NA,NA
1,training,5,21,training,memory,3,2,뿌,NA,NA,NULL,NA,NA,NA
1,training,5,21,training,memory,4,3,았,NA,NA,NULL,NA,NA,NA
1,training,5,21,training,memory,5,4,까,NA,NA,NULL,NA,NA,NA
1,training,5,21,training,memory,6,5,뜻,NA,NA,NULL,NA,NA,NA
1,training,5,21,training,updating,1,5,뜻,보,NA,NULL,NA,NA,yes
1,training,5,21,training,updating,2,2,뿌,르,NA,NULL,NA,NA,yes
1,training,5,21,training,updating,3,4,까,위,NA,NULL,NA,NA,yes
1,training,5,21,training,retrieval,1,5,뜻,보,조;효;문;때;덜;시,았,FALSE,2904.7999999523163,yes
1,training,5,21,training,retrieval,2,1,큼,큼,조;효;문;때;덜;시,조,FALSE,1161.800000011921,no
1,training,5,21,training,retrieval,3,4,까,위,조;효;문;때;덜;시,위,TRUE,3289.699999988079,yes
1,training,5,21,training,retrieval,4,0,표,표,조;효;문;때;덜;시,표,TRUE,2521.100000023842,no
1,training,5,21,training,retrieval,5,3,았,았,조;효;문;때;덜;시,위,FALSE,2780.300000011921,no
1,training,5,21,training,retrieval,6,2,뿌,르,조;효;문;때;덜;시,르,TRUE,2059.699999988079,yes
1,training,5,22,training,memory,1,0,표,NA,NA,NULL,NA,NA,NA
1,training,5,22,training,memory,2,1,았,NA,NA,NULL,NA,NA,NA
1,training,5,22,training,memory,3,2,까,NA,NA,NULL,NA,NA,NA
1,training,5,22,training,memory,4,3,뿌,NA,NA,NULL,NA,NA,NA
1,training,5,22,training,memory,5,4,보,NA,NA,NULL,NA,NA,NA
1,training,5,22,training,memory,6,5,조,NA,NA,NULL,NA,NA,NA
1,training,5,22,training,updating,1,3,뿌,큼,NA,NULL,NA,NA,yes
1,training,5,22,training,updating,2,2,까,문,NA,NULL,NA,NA,yes
1,training,5,22,training,updating,3,0,표,위,NA,NULL,NA,NA,yes
1,training,5,22,training,retrieval,1,1,았,았,뜻;효;르;폐;쟁;사,았,TRUE,2121.800000011921,no
1,training,5,22,training,retrieval,2,5,조,조,뜻;효;르;폐;쟁;사,표,FALSE,1784,no
1,training,5,22,training,retrieval,3,2,까,문,뜻;효;르;폐;쟁;사,문,TRUE,6115.099999964237,yes
1,training,5,22,training,retrieval,4,4,보,보,뜻;효;르;폐;쟁;사,큼,FALSE,1679.699999988079,no
1,training,5,22,training,retrieval,5,0,표,위,뜻;효;르;폐;쟁;사,위,TRUE,1125.5999999642372,yes
1,training,5,22,training,retrieval,6,3,뿌,큼,뜻;효;르;폐;쟁;사,보,FALSE,1414.300000011921,yes
1,training,5,23,training,memory,1,0,효,NA,NA,NULL,NA,NA,NA
1,training,5,23,training,memory,2,1,뜻,NA,NA,NULL,NA,NA,NA
1,training,5,23,training,memory,3,2,표,NA,NA,NULL,NA,NA,NA
1,training,5,23,training,memory,4,3,보,NA,NA,NULL,NA,NA,NA
1,training,5,23,training,memory,5,4,뿌,NA,NA,NULL,NA,NA,NA
1,training,5,23,training,memory,6,5,큼,NA,NA,NULL,NA,NA,NA
1,training,5,23,training,updating,1,1,뜻,까,NA,NULL,NA,NA,yes
1,training,5,23,training,updating,2,3,보,르,NA,NULL,NA,NA,yes
1,training,5,23,training,updating,3,5,큼,조,NA,NULL,NA,NA,yes
1,training,5,23,training,retrieval,1,4,뿌,뿌,았;위;문;려;좋;버,버,FALSE,1518.5999999642372,no
1,training,5,23,training,retrieval,2,2,표,표,았;위;문;려;좋;버,표,TRUE,12935.399999976158,no
1,training,5,23,training,retrieval,3,3,보,르,았;위;문;려;좋;버,르,TRUE,3021.699999988079,yes
1,training,5,23,training,retrieval,4,5,큼,조,았;위;문;려;좋;버,조,TRUE,2582.7000000476837,yes
1,training,5,23,training,retrieval,5,1,뜻,까,았;위;문;려;좋;버,까,TRUE,1733.5,yes
1,training,5,23,training,retrieval,6,0,효,효,았;위;문;려;좋;버,효,TRUE,1302.8999999761581,no
1,training,5,24,training,memory,1,0,보,NA,NA,NULL,NA,NA,NA
1,training,5,24,training,memory,2,1,르,NA,NA,NULL,NA,NA,NA
1,training,5,24,training,memory,3,2,표,NA,NA,NULL,NA,NA,NA
1,training,5,24,training,memory,4,3,위,NA,NA,NULL,NA,NA,NA
1,training,5,24,training,memory,5,4,효,NA,NA,NULL,NA,NA,NA
1,training,5,24,training,memory,6,5,까,NA,NA,NULL,NA,NA,NA
1,training,5,24,training,updating,1,5,까,큼,NA,NULL,NA,NA,yes
1,training,5,24,training,updating,2,4,효,조,NA,NULL,NA,NA,yes
1,training,5,24,training,updating,3,0,보,문,NA,NULL,NA,NA,yes
1,training,5,24,training,retrieval,1,4,효,조,았;뜻;뿌;립;했;아,조,TRUE,4927.899999976158,yes
1,training,5,24,training,retrieval,2,3,위,위,았;뜻;뿌;립;했;아,위,TRUE,5136,no
1,training,5,24,training,retrieval,3,2,표,표,았;뜻;뿌;립;했;아,르,FALSE,4531.899999976158,no
1,training,5,24,training,retrieval,4,5,까,큼,았;뜻;뿌;립;했;아,아,FALSE,1520.2000000476837,yes
1,training,5,24,training,retrieval,5,1,르,르,았;뜻;뿌;립;했;아,표,FALSE,3079.5,no
1,training,5,24,training,retrieval,6,0,보,문,았;뜻;뿌;립;했;아,아,FALSE,1059,yes
1,training,5,25,training,memory,1,0,효,NA,NA,NULL,NA,NA,NA
1,training,5,25,training,memory,2,1,르,NA,NA,NULL,NA,NA,NA
1,training,5,25,training,memory,3,2,뜻,NA,NA,NULL,NA,NA,NA
1,training,5,25,training,memory,4,3,뿌,NA,NA,NULL,NA,NA,NA
1,training,5,25,training,memory,5,4,위,NA,NA,NULL,NA,NA,NA
1,training,5,25,training,memory,6,5,보,NA,NA,NULL,NA,NA,NA
1,training,5,25,training,updating,1,2,뜻,조,NA,NULL,NA,NA,yes
1,training,5,25,training,updating,2,0,효,까,NA,NULL,NA,NA,yes
1,training,5,25,training,updating,3,4,위,았,NA,NULL,NA,NA,yes
1,training,5,25,training,retrieval,1,5,보,보,큼;표;문;활;며;던,효,FALSE,1591.7000000476837,no
1,training,5,25,training,retrieval,2,3,뿌,뿌,큼;표;문;활;며;던,던,FALSE,1546.4000000357628,no
1,training,5,25,training,retrieval,3,1,르,르,큼;표;문;활;며;던,르,TRUE,4570.399999976158,no
1,training,5,25,training,retrieval,4,2,뜻,조,큼;표;문;활;며;던,조,TRUE,1327.1000000238419,yes
1,training,5,25,training,retrieval,5,0,효,까,큼;표;문;활;며;던,까,TRUE,2509.899999976158,yes
1,training,5,25,training,retrieval,6,4,위,았,큼;표;문;활;며;던,았,TRUE,3059.399999976158,yes
1,training,6,26,training,memory,1,0,까,NA,NA,NULL,NA,NA,NA
1,training,6,26,training,memory,2,1,효,NA,NA,NULL,NA,NA,NA
1,training,6,26,training,memory,3,2,뜻,NA,NA,NULL,NA,NA,NA
1,training,6,26,training,memory,4,3,보,NA,NA,NULL,NA,NA,NA
1,training,6,26,training,memory,5,4,큼,NA,NA,NULL,NA,NA,NA
1,training,6,26,training,memory,6,5,았,NA,NA,NULL,NA,NA,NA
1,training,6,26,training,updating,1,5,았,조,NA,NULL,NA,NA,yes
1,training,6,26,training,updating,2,4,큼,표,NA,NULL,NA,NA,yes
1,training,6,26,training,updating,3,0,까,문,NA,NULL,NA,NA,yes
1,training,6,26,training,retrieval,1,3,보,보,뿌;위;르;체;비;로,보,TRUE,3128.300000011921,no
1,training,6,26,training,retrieval,2,2,뜻,뜻,뿌;위;르;체;비;로,뜻,TRUE,1452.1000000238419,no
1,training,6,26,training,retrieval,3,1,효,효,뿌;위;르;체;비;로,효,TRUE,2646.800000011921,no
1,training,6,26,training,retrieval,4,5,았,조,뿌;위;르;체;비;로,았,FALSE,1015.3000000119209,yes
1,training,6,26,training,retrieval,5,4,큼,표,뿌;위;르;체;비;로,까,FALSE,430.89999997615814,yes
1,training,6,26,training,retrieval,6,0,까,문,뿌;위;르;체;비;로,로,FALSE,309,yes
1,training,6,27,training,memory,1,0,문,NA,NA,NULL,NA,NA,NA
1,training,6,27,training,memory,2,1,까,NA,NA,NULL,NA,NA,NA
1,training,6,27,training,memory,3,2,위,NA,NA,NULL,NA,NA,NA
1,training,6,27,training,memory,4,3,보,NA,NA,NULL,NA,NA,NA
1,training,6,27,training,memory,5,4,뜻,NA,NA,NULL,NA,NA,NA
1,training,6,27,training,memory,6,5,효,NA,NA,NULL,NA,NA,NA
1,training,6,27,training,updating,1,4,뜻,았,NA,NULL,NA,NA,yes
1,training,6,27,training,updating,2,1,까,뿌,NA,NULL,NA,NA,yes
1,training,6,27,training,updating,3,3,보,조,NA,NULL,NA,NA,yes
1,training,6,27,training,retrieval,1,4,뜻,았,르;표;큼;나;통;띤,았,TRUE,1905.6000000238419,yes
1,training,6,27,training,retrieval,2,1,까,뿌,르;표;큼;나;통;띤,뿌,TRUE,1615.5999999642372,yes
1,training,6,27,training,retrieval,3,5,효,효,르;표;큼;나;통;띤,효,TRUE,1522.5999999642372,no
1,training,6,27,training,retrieval,4,0,문,문,르;표;큼;나;통;띤,띤,FALSE,2912,no
1,training,6,27,training,retrieval,5,3,보,조,르;표;큼;나;통;띤,조,TRUE,1780.699999988079,yes
1,training,6,27,training,retrieval,6,2,위,위,르;표;큼;나;통;띤,위,TRUE,408.60000002384186,no
1,training,6,28,training,memory,1,0,조,NA,NA,NULL,NA,NA,NA
1,training,6,28,training,memory,2,1,았,NA,NA,NULL,NA,NA,NA
1,training,6,28,training,memory,3,2,표,NA,NA,NULL,NA,NA,NA
1,training,6,28,training,memory,4,3,큼,NA,NA,NULL,NA,NA,NA
1,training,6,28,training,memory,5,4,까,NA,NA,NULL,NA,NA,NA
1,training,6,28,training,memory,6,5,위,NA,NA,NULL,NA,NA,NA
1,training,6,28,training,updating,1,3,큼,문,NA,NULL,NA,NA,yes
1,training,6,28,training,updating,2,5,위,효,NA,NULL,NA,NA,yes
1,training,6,28,training,updating,3,0,조,르,NA,NULL,NA,NA,yes
1,training,6,28,training,retrieval,1,0,조,르,뿌;보;뜻;떨;진;바,르,TRUE,3374.899999976158,yes
1,training,6,28,training,retrieval,2,1,았,았,뿌;보;뜻;떨;진;바,았,TRUE,1820,no
1,training,6,28,training,retrieval,3,3,큼,문,뿌;보;뜻;떨;진;바,조,FALSE,1397,yes
1,training,6,28,training,retrieval,4,4,까,까,뿌;보;뜻;떨;진;바,바,FALSE,2172.7999999523163,no
1,training,6,28,training,retrieval,5,5,위,효,뿌;보;뜻;떨;진;바,효,TRUE,3155.699999988079,yes
1,training,6,28,training,retrieval,6,2,표,표,뿌;보;뜻;떨;진;바,표,TRUE,1553.5,no
1,training,6,29,training,memory,1,0,뿌,NA,NA,NULL,NA,NA,NA
1,training,6,29,training,memory,2,1,문,NA,NA,NULL,NA,NA,NA
1,training,6,29,training,memory,3,2,보,NA,NA,NULL,NA,NA,NA
1,training,6,29,training,memory,4,3,큼,NA,NA,NULL,NA,NA,NA
1,training,6,29,training,memory,5,4,효,NA,NA,NULL,NA,NA,NA
1,training,6,29,training,memory,6,5,르,NA,NA,NULL,NA,NA,NA
1,training,6,29,training,updating,1,4,효,표,NA,NULL,NA,NA,yes
1,training,6,29,training,updating,2,5,르,뜻,NA,NULL,NA,NA,yes
1,training,6,29,training,updating,3,2,보,위,NA,NULL,NA,NA,yes
1,training,6,29,training,retrieval,1,3,큼,큼,까;조;았;참;럽;픔,픔,FALSE,1809.699999988079,no
1,training,6,29,training,retrieval,2,4,효,표,까;조;았;참;럽;픔,뿌,FALSE,1281.1000000238419,yes
1,training,6,29,training,retrieval,3,0,뿌,뿌,까;조;았;참;럽;픔,문,FALSE,742.3999999761581,no
1,training,6,29,training,retrieval,4,5,르,뜻,까;조;았;참;럽;픔,르,FALSE,943.3999999761581,yes
1,training,6,29,training,retrieval,5,1,문,문,까;조;았;참;럽;픔,표,FALSE,633,no
1,training,6,29,training,retrieval,6,2,보,위,까;조;았;참;럽;픔,위,TRUE,792.5,yes
1,training,6,30,training,memory,1,0,위,NA,NA,NULL,NA,NA,NA
1,training,6,30,training,memory,2,1,조,NA,NA,NULL,NA,NA,NA
1,training,6,30,training,memory,3,2,르,NA,NA,NULL,NA,NA,NA
1,training,6,30,training,memory,4,3,까,NA,NA,NULL,NA,NA,NA
1,training,6,30,training,memory,5,4,문,NA,NA,NULL,NA,NA,NA
1,training,6,30,training,memory,6,5,큼,NA,NA,NULL,NA,NA,NA
1,training,6,30,training,updating,1,5,큼,뿌,NA,NULL,NA,NA,yes
1,training,6,30,training,updating,2,4,문,았,NA,NULL,NA,NA,yes
1,training,6,30,training,updating,3,0,위,표,NA,NULL,NA,NA,yes
1,training,6,30,training,retrieval,1,1,조,조,보;효;뜻;쓸;른;닌,조,TRUE,6222,no
1,training,6,30,training,retrieval,2,5,큼,뿌,보;효;뜻;쓸;른;닌,뿌,TRUE,1820.2999999523163,yes
1,training,6,30,training,retrieval,3,0,위,표,보;효;뜻;쓸;른;닌,표,TRUE,2273.5,yes
1,training,6,30,training,retrieval,4,4,문,았,보;효;뜻;쓸;른;닌,큼,FALSE,3011.100000023842,yes
1,training,6,30,training,retrieval,5,2,르,르,보;효;뜻;쓸;른;닌,르,TRUE,2108,no
1,training,6,30,training,retrieval,6,3,까,까,보;효;뜻;쓸;른;닌,큼,FALSE,1319.699999988079,no
1,testing,1,1,B,memory,1,0,혈,NA,NA,NULL,NA,NA,NA
1,testing,1,1,B,memory,2,1,엄,NA,NA,NULL,NA,NA,NA
1,testing,1,1,B,memory,3,2,강,NA,NA,NULL,NA,NA,NA
1,testing,1,1,B,memory,4,3,병,NA,NA,NULL,NA,NA,NA
1,testing,1,1,B,memory,5,4,율,NA,NA,NULL,NA,NA,NA
1,testing,1,1,B,memory,6,5,쓰,NA,NA,NULL,NA,NA,NA
1,testing,1,1,B,updating,1,1,엄,보,NA,NULL,NA,NA,yes
1,testing,1,1,B,updating,2,3,병,문,NA,NULL,NA,NA,yes
1,testing,1,1,B,updating,3,2,강,위,NA,NULL,NA,NA,yes
1,testing,1,1,B,retrieval,1,0,혈,혈,르;큼;효;질;베;불,불,FALSE,1300.300000011921,no
1,testing,1,1,B,retrieval,2,1,엄,보,르;큼;효;질;베;불,보,TRUE,3210.099999964237,yes
1,testing,1,1,B,retrieval,3,2,강,위,르;큼;효;질;베;불,위,TRUE,3510.399999976158,yes
1,testing,1,1,B,retrieval,4,5,쓰,쓰,르;큼;효;질;베;불,문,FALSE,1846.4000000357628,no
1,testing,1,1,B,retrieval,5,4,율,율,르;큼;효;질;베;불,쓰,FALSE,1728.699999988079,no
1,testing,1,1,B,retrieval,6,3,병,문,르;큼;효;질;베;불,문,TRUE,4911.299999952316,yes
1,testing,1,2,A,memory,1,0,효,NA,NA,NULL,NA,NA,NA
1,testing,1,2,A,memory,2,1,보,NA,NA,NULL,NA,NA,NA
1,testing,1,2,A,memory,3,2,표,NA,NA,NULL,NA,NA,NA
1,testing,1,2,A,memory,4,3,위,NA,NA,NULL,NA,NA,NA
1,testing,1,2,A,memory,5,4,뜻,NA,NA,NULL,NA,NA,NA
1,testing,1,2,A,memory,6,5,조,NA,NA,NULL,NA,NA,NA
1,testing,1,2,A,updating,1,4,뜻,또,NA,NULL,NA,NA,yes
1,testing,1,2,A,updating,2,5,조,흔,NA,NULL,NA,NA,yes
1,testing,1,2,A,updating,3,2,표,꾸,NA,NULL,NA,NA,yes
1,testing,1,2,A,retrieval,1,5,조,흔,까;르;뿌;막;탈;에,에,FALSE,1996.699999988079,yes
1,testing,1,2,A,retrieval,2,0,효,효,까;르;뿌;막;탈;에,효,TRUE,363.80000001192093,no
1,testing,1,2,A,retrieval,3,2,표,꾸,까;르;뿌;막;탈;에,또,FALSE,2456.400000035763,yes
1,testing,1,2,A,retrieval,4,3,위,위,까;르;뿌;막;탈;에,위,TRUE,2583.899999976158,no
1,testing,1,2,A,retrieval,5,4,뜻,또,까;르;뿌;막;탈;에,표,FALSE,936.4000000357628,yes
1,testing,1,2,A,retrieval,6,1,보,보,까;르;뿌;막;탈;에,표,FALSE,677.3000000119209,no
1,testing,1,3,B,memory,1,0,숙,NA,NA,NULL,NA,NA,NA
1,testing,1,3,B,memory,2,1,년,NA,NA,NULL,NA,NA,NA
1,testing,1,3,B,memory,3,2,성,NA,NA,NULL,NA,NA,NA
1,testing,1,3,B,memory,4,3,든,NA,NA,NULL,NA,NA,NA
1,testing,1,3,B,memory,5,4,쩔,NA,NA,NULL,NA,NA,NA
1,testing,1,3,B,memory,6,5,않,NA,NA,NULL,NA,NA,NA
1,testing,1,3,B,updating,1,1,년,뿌,NA,NULL,NA,NA,yes
1,testing,1,3,B,updating,2,0,숙,큼,NA,NULL,NA,NA,yes
1,testing,1,3,B,updating,3,4,쩔,조,NA,NULL,NA,NA,yes
1,testing,1,3,B,retrieval,1,1,년,뿌,표;뜻;까;두;난;응,뿌,TRUE,1729.699999988079,yes
1,testing,1,3,B,retrieval,2,5,않,않,표;뜻;까;두;난;응,않,TRUE,1020.6999999880791,no
1,testing,1,3,B,retrieval,3,3,든,든,표;뜻;까;두;난;응,쩔,FALSE,458.5999999642372,no
1,testing,1,3,B,retrieval,4,4,쩔,조,표;뜻;까;두;난;응,조,TRUE,1696.300000011921,yes
1,testing,1,3,B,retrieval,5,0,숙,큼,표;뜻;까;두;난;응,든,FALSE,377.9000000357628,yes
1,testing,1,3,B,retrieval,6,2,성,성,표;뜻;까;두;난;응,성,TRUE,248.30000001192093,no
1,testing,1,4,A,memory,1,0,았,NA,NA,NULL,NA,NA,NA
1,testing,1,4,A,memory,2,1,뜻,NA,NA,NULL,NA,NA,NA
1,testing,1,4,A,memory,3,2,위,NA,NA,NULL,NA,NA,NA
1,testing,1,4,A,memory,4,3,큼,NA,NA,NULL,NA,NA,NA
1,testing,1,4,A,memory,5,4,르,NA,NA,NULL,NA,NA,NA
1,testing,1,4,A,memory,6,5,보,NA,NA,NULL,NA,NA,NA
1,testing,1,4,A,updating,1,5,보,일,NA,NULL,NA,NA,yes
1,testing,1,4,A,updating,2,2,위,휴,NA,NULL,NA,NA,yes
1,testing,1,4,A,updating,3,0,았,어,NA,NULL,NA,NA,yes
1,testing,1,4,A,retrieval,1,5,보,일,뿌;효;표;늘;식;격,격,FALSE,2595.600000023842,yes
1,testing,1,4,A,retrieval,2,4,르,르,뿌;효;표;늘;식;격,격,FALSE,456.0999999642372,no
1,testing,1,4,A,retrieval,3,1,뜻,뜻,뿌;효;표;늘;식;격,뜻,TRUE,3152.399999976158,no
1,testing,1,4,A,retrieval,4,3,큼,큼,뿌;효;표;늘;식;격,르,FALSE,2243.800000011921,no
1,testing,1,4,A,retrieval,5,2,위,휴,뿌;효;표;늘;식;격,효,FALSE,5097.400000035763,yes
1,testing,1,4,A,retrieval,6,0,았,어,뿌;효;표;늘;식;격,어,TRUE,945.1999999880791,yes
1,testing,1,5,A,memory,1,0,았,NA,NA,NULL,NA,NA,NA
1,testing,1,5,A,memory,2,1,조,NA,NA,NULL,NA,NA,NA
1,testing,1,5,A,memory,3,2,뜻,NA,NA,NULL,NA,NA,NA
1,testing,1,5,A,memory,4,3,큼,NA,NA,NULL,NA,NA,NA
1,testing,1,5,A,memory,5,4,뿌,NA,NA,NULL,NA,NA,NA
1,testing,1,5,A,memory,6,5,까,NA,NA,NULL,NA,NA,NA
1,testing,1,5,A,updating,1,3,큼,울,NA,NULL,NA,NA,yes
1,testing,1,5,A,updating,2,5,까,뒤,NA,NULL,NA,NA,yes
1,testing,1,5,A,updating,3,0,았,긴,NA,NULL,NA,NA,yes
1,testing,1,5,A,retrieval,1,5,까,뒤,문;효;표;기;흉;당,당,FALSE,1780.1000000238419,yes
1,testing,1,5,A,retrieval,2,3,큼,울,문;효;표;기;흉;당,았,FALSE,551.1999999880791,yes
1,testing,1,5,A,retrieval,3,1,조,조,문;효;표;기;흉;당,조,TRUE,1511.300000011921,no
1,testing,1,5,A,retrieval,4,2,뜻,뜻,문;효;표;기;흉;당,뜻,TRUE,9989.800000011921,no
1,testing,1,5,A,retrieval,5,0,았,긴,문;효;표;기;흉;당,았,FALSE,1314.5,yes
1,testing,1,5,A,retrieval,6,4,뿌,뿌,문;효;표;기;흉;당,뿌,TRUE,1369,no
1,testing,2,6,B,memory,1,0,맞,NA,NA,NULL,NA,NA,NA
1,testing,2,6,B,memory,2,1,패,NA,NA,NULL,NA,NA,NA
1,testing,2,6,B,memory,3,2,혐,NA,NA,NULL,NA,NA,NA
1,testing,2,6,B,memory,4,3,브,NA,NA,NULL,NA,NA,NA
1,testing,2,6,B,memory,5,4,타,NA,NA,NULL,NA,NA,NA
1,testing,2,6,B,memory,6,5,배,NA,NA,NULL,NA,NA,NA
1,testing,2,6,B,updating,1,0,맞,까,NA,NULL,NA,NA,yes
1,testing,2,6,B,updating,2,1,패,표,NA,NULL,NA,NA,yes
1,testing,2,6,B,updating,3,5,배,조,NA,NULL,NA,NA,yes
1,testing,2,6,B,retrieval,1,5,배,조,큼;효;르;습;중;호,조,TRUE,1615.8999999761581,yes
1,testing,2,6,B,retrieval,2,2,혐,혐,큼;효;르;습;중;호,표,FALSE,1241.5999999642372,no
1,testing,2,6,B,retrieval,3,0,맞,까,큼;효;르;습;중;호,표,FALSE,1243.6000000238419,yes
1,testing,2,6,B,retrieval,4,1,패,표,큼;효;르;습;중;호,조,FALSE,922.1000000238419,yes
1,testing,2,6,B,retrieval,5,3,브,브,큼;효;르;습;중;호,배,FALSE,1905.0999999642372,no
1,testing,2,6,B,retrieval,6,4,타,타,큼;효;르;습;중;호,타,TRUE,345.10000002384186,no
1,testing,2,7,B,memory,1,0,변,NA,NA,NULL,NA,NA,NA
1,testing,2,7,B,memory,2,1,터,NA,NA,NULL,NA,NA,NA
1,testing,2,7,B,memory,3,2,획,NA,NA,NULL,NA,NA,NA
1,testing,2,7,B,memory,4,3,현,NA,NA,NULL,NA,NA,NA
1,testing,2,7,B,memory,5,4,게,NA,NA,NULL,NA,NA,NA
1,testing,2,7,B,memory,6,5,별,NA,NA,NULL,NA,NA,NA
1,testing,2,7,B,updating,1,1,터,았,NA,NULL,NA,NA,yes
1,testing,2,7,B,updating,2,3,현,뿌,NA,NULL,NA,NA,yes
1,testing,2,7,B,updating,3,5,별,문,NA,NULL,NA,NA,yes
1,testing,2,7,B,retrieval,1,0,변,변,르;위;조;받;잇;선,선,FALSE,1179,no
1,testing,2,7,B,retrieval,2,4,게,게,르;위;조;받;잇;선,변,FALSE,2028.199999988079,no
1,testing,2,7,B,retrieval,3,1,터,았,르;위;조;받;잇;선,았,TRUE,2567.600000023842,yes
1,testing,2,7,B,retrieval,4,5,별,문,르;위;조;받;잇;선,문,TRUE,6429.699999988079,yes
1,testing,2,7,B,retrieval,5,2,획,획,르;위;조;받;잇;선,변,FALSE,4211.800000011921,no
1,testing,2,7,B,retrieval,6,3,현,뿌,르;위;조;받;잇;선,뿌,TRUE,1301.5,yes
1,testing,2,8,A,memory,1,0,문,NA,NA,NULL,NA,NA,NA
1,testing,2,8,A,memory,2,1,위,NA,NA,NULL,NA,NA,NA
1,testing,2,8,A,memory,3,2,았,NA,NA,NULL,NA,NA,NA
1,testing,2,8,A,memory,4,3,뜻,NA,NA,NULL,NA,NA,NA
1,testing,2,8,A,memory,5,4,큼,NA,NA,NULL,NA,NA,NA
1,testing,2,8,A,memory,6,5,조,NA,NA,NULL,NA,NA,NA
1,testing,2,8,A,updating,1,5,조,씨,NA,NULL,NA,NA,yes
1,testing,2,8,A,updating,2,3,뜻,행,NA,NULL,NA,NA,yes
1,testing,2,8,A,updating,3,0,문,영,NA,NULL,NA,NA,yes
1,testing,2,8,A,retrieval,1,3,뜻,행,표;보;효;으;몸;금,행,TRUE,3659.099999964237,yes
1,testing,2,8,A,retrieval,2,4,큼,큼,표;보;효;으;몸;금,문,FALSE,3390.600000023842,no
1,testing,2,8,A,retrieval,3,5,조,씨,표;보;효;으;몸;금,씨,TRUE,1592.2999999523163,yes
1,testing,2,8,A,retrieval,4,1,위,위,표;보;효;으;몸;금,위,TRUE,1745.5,no
1,testing,2,8,A,retrieval,5,0,문,영,표;보;효;으;몸;금,영,TRUE,2289.199999988079,yes
1,testing,2,8,A,retrieval,6,2,았,았,표;보;효;으;몸;금,았,TRUE,2818.399999976158,no
1,testing,2,9,A,memory,1,0,까,NA,NA,NULL,NA,NA,NA
1,testing,2,9,A,memory,2,1,았,NA,NA,NULL,NA,NA,NA
1,testing,2,9,A,memory,3,2,문,NA,NA,NULL,NA,NA,NA
1,testing,2,9,A,memory,4,3,보,NA,NA,NULL,NA,NA,NA
1,testing,2,9,A,memory,5,4,뜻,NA,NA,NULL,NA,NA,NA
1,testing,2,9,A,memory,6,5,뿌,NA,NA,NULL,NA,NA,NA
1,testing,2,9,A,updating,1,3,보,넘,NA,NULL,NA,NA,yes
1,testing,2,9,A,updating,2,0,까,겨,NA,NULL,NA,NA,yes
1,testing,2,9,A,updating,3,1,았,원,NA,NULL,NA,NA,yes
1,testing,2,9,A,retrieval,1,2,문,문,효;르;조;낙;장;판,판,FALSE,1337.199999988079,no
1,testing,2,9,A,retrieval,2,1,았,원,효;르;조;낙;장;판,원,TRUE,2021.5,yes
1,testing,2,9,A,retrieval,3,4,뜻,뜻,효;르;조;낙;장;판,뜻,TRUE,3894,no
1,testing,2,9,A,retrieval,4,5,뿌,뿌,효;르;조;낙;장;판,뿌,TRUE,1681.800000011921,no
1,testing,2,9,A,retrieval,5,0,까,겨,효;르;조;낙;장;판,까,FALSE,572,yes
1,testing,2,9,A,retrieval,6,3,보,넘,효;르;조;낙;장;판,았,FALSE,457.4000000357628,yes
1,testing,2,10,B,memory,1,0,학,NA,NA,NULL,NA,NA,NA
1,testing,2,10,B,memory,2,1,채,NA,NA,NULL,NA,NA,NA
1,testing,2,10,B,memory,3,2,화,NA,NA,NULL,NA,NA,NA
1,testing,2,10,B,memory,4,3,루,NA,NA,NULL,NA,NA,NA
1,testing,2,10,B,memory,5,4,떡,NA,NA,NULL,NA,NA,NA
1,testing,2,10,B,memory,6,5,쉽,NA,NA,NULL,NA,NA,NA
1,testing,2,10,B,updating,1,0,학,뿌,NA,NULL,NA,NA,yes
1,testing,2,10,B,updating,2,3,루,뜻,NA,NULL,NA,NA,yes
1,testing,2,10,B,updating,3,5,쉽,보,NA,NULL,NA,NA,yes
1,testing,2,10,B,retrieval,1,2,화,화,표;문;까;육;따;와,표,FALSE,1143.4000000357628,no
1,testing,2,10,B,retrieval,2,3,루,뜻,표;문;까;육;따;와,뜻,TRUE,2854.899999976158,yes
1,testing,2,10,B,retrieval,3,0,학,뿌,표;문;까;육;따;와,뿌,TRUE,1540.3999999761581,yes
1,testing,2,10,B,retrieval,4,1,채,채,표;문;까;육;따;와,채,TRUE,2816.600000023842,no
1,testing,2,10,B,retrieval,5,5,쉽,보,표;문;까;육;따;와,보,TRUE,1811.5,yes
1,testing,2,10,B,retrieval,6,4,떡,떡,표;문;까;육;따;와,뿌,FALSE,678.0999999642372,no
1,testing,3,11,A,memory,1,0,조,NA,NA,NULL,NA,NA,NA
1,testing,3,11,A,memory,2,1,문,NA,NA,NULL,NA,NA,NA
1,testing,3,11,A,memory,3,2,표,NA,NA,NULL,NA,NA,NA
1,testing,3,11,A,memory,4,3,까,NA,NA,NULL,NA,NA,NA
1,testing,3,11,A,memory,5,4,효,NA,NA,NULL,NA,NA,NA
1,testing,3,11,A,memory,6,5,뜻,NA,NA,NULL,NA,NA,NA
1,testing,3,11,A,updating,1,5,뜻,빅,NA,NULL,NA,NA,yes
1,testing,3,11,A,updating,2,1,문,즐,NA,NULL,NA,NA,yes
1,testing,3,11,A,updating,3,3,까,략,NA,NULL,NA,NA,yes
1,testing,3,11,A,retrieval,1,1,문,즐,보;뿌;위;튜;단;물,략,FALSE,5163.399999976158,yes
1,testing,3,11,A,retrieval,2,4,효,효,보;뿌;위;튜;단;물,효,TRUE,1722.1000000238419,no
1,testing,3,11,A,retrieval,3,2,표,표,보;뿌;위;튜;단;물,뜻,FALSE,1412.7999999523163,no
1,testing,3,11,A,retrieval,4,0,조,조,보;뿌;위;튜;단;물,조,TRUE,608.5,no
1,testing,3,11,A,retrieval,5,5,뜻,빅,보;뿌;위;튜;단;물,물,FALSE,332.30000001192093,yes
1,testing,3,11,A,retrieval,6,3,까,략,보;뿌;위;튜;단;물,즐,FALSE,1357.2000000476837,yes
1,testing,3,12,B,memory,1,0,제,NA,NA,NULL,NA,NA,NA
1,testing,3,12,B,memory,2,1,혀,NA,NA,NULL,NA,NA,NA
1,testing,3,12,B,memory,3,2,차,NA,NA,NULL,NA,NA,NA
1,testing,3,12,B,memory,4,3,알,NA,NA,NULL,NA,NA,NA
1,testing,3,12,B,memory,5,4,후,NA,NA,NULL,NA,NA,NA
1,testing,3,12,B,memory,6,5,름,NA,NA,NULL,NA,NA,NA
1,testing,3,12,B,updating,1,5,름,문,NA,NULL,NA,NA,yes
1,testing,3,12,B,updating,2,4,후,뿌,NA,NULL,NA,NA,yes
1,testing,3,12,B,updating,3,2,차,표,NA,NULL,NA,NA,yes
1,testing,3,12,B,retrieval,1,2,차,표,효;았;큼;할;었;공,표,TRUE,1765.699999988079,yes
1,testing,3,12,B,retrieval,2,0,제,제,효;았;큼;할;었;공,공,FALSE,1382.300000011921,no
1,testing,3,12,B,retrieval,3,4,후,뿌,효;았;큼;할;었;공,뿌,TRUE,2467.599999964237,yes
1,testing,3,12,B,retrieval,4,3,알,알,효;았;큼;할;었;공,혀,FALSE,1137.800000011921,no
1,testing,3,12,B,retrieval,5,1,혀,혀,효;았;큼;할;었;공,제,FALSE,907.6000000238419,no
1,testing,3,12,B,retrieval,6,5,름,문,효;았;큼;할;었;공,문,TRUE,1944.9000000357628,yes
1,testing,3,13,A,memory,1,0,표,NA,NA,NULL,NA,NA,NA
1,testing,3,13,A,memory,2,1,르,NA,NA,NULL,NA,NA,NA
1,testing,3,13,A,memory,3,2,문,NA,NA,NULL,NA,NA,NA
1,testing,3,13,A,memory,4,3,뜻,NA,NA,NULL,NA,NA,NA
1,testing,3,13,A,memory,5,4,큼,NA,NA,NULL,NA,NA,NA
1,testing,3,13,A,memory,6,5,조,NA,NA,NULL,NA,NA,NA
1,testing,3,13,A,updating,1,3,뜻,양,NA,NULL,NA,NA,yes
1,testing,3,13,A,updating,2,1,르,박,NA,NULL,NA,NA,yes
1,testing,3,13,A,updating,3,2,문,움,NA,NULL,NA,NA,yes
1,testing,3,13,A,retrieval,1,5,조,조,았;보;뿌;못;률;정,조,TRUE,2147.599999964237,no
1,testing,3,13,A,retrieval,2,1,르,박,았;보;뿌;못;률;정,박,TRUE,2246.300000011921,yes
1,testing,3,13,A,retrieval,3,2,문,움,았;보;뿌;못;률;정,르,FALSE,1324.8999999761581,yes
1,testing,3,13,A,retrieval,4,0,표,표,았;보;뿌;못;률;정,표,TRUE,3053.599999964237,no
1,testing,3,13,A,retrieval,5,4,큼,큼,았;보;뿌;못;률;정,르,FALSE,1217.699999988079,no
1,testing,3,13,A,retrieval,6,3,뜻,양,았;보;뿌;못;률;정,조,FALSE,3017.599999964237,yes
1,testing,3,14,B,memory,1,0,환,NA,NA,NULL,NA,NA,NA
1,testing,3,14,B,memory,2,1,재,NA,NA,NULL,NA,NA,NA
1,testing,3,14,B,memory,3,2,종,NA,NA,NULL,NA,NA,NA
1,testing,3,14,B,memory,4,3,북,NA,NA,NULL,NA,NA,NA
1,testing,3,14,B,memory,5,4,근,NA,NA,NULL,NA,NA,NA
1,testing,3,14,B,memory,6,5,여,NA,NA,NULL,NA,NA,NA
1,testing,3,14,B,updating,1,4,근,뜻,NA,NULL,NA,NA,yes
1,testing,3,14,B,updating,2,5,여,조,NA,NULL,NA,NA,yes
1,testing,3,14,B,updating,3,2,종,큼,NA,NULL,NA,NA,yes
1,testing,3,14,B,retrieval,1,2,종,큼,르;문;뿌;만;피;책,큼,TRUE,2942.699999988079,yes
1,testing,3,14,B,retrieval,2,0,환,환,르;문;뿌;만;피;책,환,TRUE,1136.1000000238419,no
1,testing,3,14,B,retrieval,3,3,북,북,르;문;뿌;만;피;책,재,FALSE,1027.6000000238419,no
1,testing,3,14,B,retrieval,4,5,여,조,르;문;뿌;만;피;책,조,TRUE,2758,yes
1,testing,3,14,B,retrieval,5,1,재,재,르;문;뿌;만;피;책,종,FALSE,1193.4000000357628,no
1,testing,3,14,B,retrieval,6,4,근,뜻,르;문;뿌;만;피;책,여,FALSE,1712,yes
1,testing,3,15,A,memory,1,0,문,NA,NA,NULL,NA,NA,NA
1,testing,3,15,A,memory,2,1,위,NA,NA,NULL,NA,NA,NA
1,testing,3,15,A,memory,3,2,표,NA,NA,NULL,NA,NA,NA
1,testing,3,15,A,memory,4,3,뿌,NA,NA,NULL,NA,NA,NA
1,testing,3,15,A,memory,5,4,았,NA,NA,NULL,NA,NA,NA
1,testing,3,15,A,memory,6,5,뜻,NA,NA,NULL,NA,NA,NA
1,testing,3,15,A,updating,1,1,위,본,NA,NULL,NA,NA,yes
1,testing,3,15,A,updating,2,4,았,축,NA,NULL,NA,NA,yes
1,testing,3,15,A,updating,3,0,문,빛,NA,NULL,NA,NA,yes
1,testing,3,15,A,retrieval,1,5,뜻,뜻,조;큼;까;속;되;들,았,FALSE,1536.699999988079,no
1,testing,3,15,A,retrieval,2,1,위,본,조;큼;까;속;되;들,본,TRUE,2725.199999988079,yes
1,testing,3,15,A,retrieval,3,2,표,표,조;큼;까;속;되;들,뿌,FALSE,2610.199999988079,no
1,testing,3,15,A,retrieval,4,3,뿌,뿌,조;큼;까;속;되;들,았,FALSE,1126.300000011921,no
1,testing,3,15,A,retrieval,5,0,문,빛,조;큼;까;속;되;들,위,FALSE,1401.1000000238419,yes
1,testing,3,15,A,retrieval,6,4,았,축,조;큼;까;속;되;들,문,FALSE,342.89999997615814,yes
1,testing,4,16,A,memory,1,0,뜻,NA,NA,NULL,NA,NA,NA
1,testing,4,16,A,memory,2,1,큼,NA,NA,NULL,NA,NA,NA
1,testing,4,16,A,memory,3,2,르,NA,NA,NULL,NA,NA,NA
1,testing,4,16,A,memory,4,3,까,NA,NA,NULL,NA,NA,NA
1,testing,4,16,A,memory,5,4,뿌,NA,NA,NULL,NA,NA,NA
1,testing,4,16,A,memory,6,5,조,NA,NA,NULL,NA,NA,NA
1,testing,4,16,A,updating,1,5,조,임,NA,NULL,NA,NA,yes
1,testing,4,16,A,updating,2,4,뿌,고,NA,NULL,NA,NA,yes
1,testing,4,16,A,updating,3,3,까,히,NA,NULL,NA,NA,yes
1,testing,4,16,A,retrieval,1,2,르,르,았;위;보;섬;설;러,르,TRUE,2328.5,no
1,testing,4,16,A,retrieval,2,4,뿌,고,았;위;보;섬;설;러,조,FALSE,1778,yes
1,testing,4,16,A,retrieval,3,1,큼,큼,았;위;보;섬;설;러,뜻,FALSE,1314.800000011921,no
1,testing,4,16,A,retrieval,4,3,까,히,았;위;보;섬;설;러,히,TRUE,1415.2000000476837,yes
1,testing,4,16,A,retrieval,5,0,뜻,뜻,았;위;보;섬;설;러,뜻,TRUE,5258.300000011921,no
1,testing,4,16,A,retrieval,6,5,조,임,았;위;보;섬;설;러,조,FALSE,1227.800000011921,yes
1,testing,4,17,B,memory,1,0,간,NA,NA,NULL,NA,NA,NA
1,testing,4,17,B,memory,2,1,적,NA,NA,NULL,NA,NA,NA
1,testing,4,17,B,memory,3,2,검,NA,NA,NULL,NA,NA,NA
1,testing,4,17,B,memory,4,3,너,NA,NA,NULL,NA,NA,NA
1,testing,4,17,B,memory,5,4,다,NA,NA,NULL,NA,NA,NA
1,testing,4,17,B,memory,6,5,추,NA,NA,NULL,NA,NA,NA
1,testing,4,17,B,updating,1,3,너,뜻,NA,NULL,NA,NA,yes
1,testing,4,17,B,updating,2,0,간,문,NA,NULL,NA,NA,yes
1,testing,4,17,B,updating,3,1,적,효,NA,NULL,NA,NA,yes
1,testing,4,17,B,retrieval,1,5,추,추,표;보;뿌;익;측;럼,럼,FALSE,1262.800000011921,no
1,testing,4,17,B,retrieval,2,1,적,효,표;보;뿌;익;측;럼,효,TRUE,4199.800000011921,yes
1,testing,4,17,B,retrieval,3,4,다,다,표;보;뿌;익;측;럼,추,FALSE,1197.199999988079,no
1,testing,4,17,B,retrieval,4,0,간,문,표;보;뿌;익;측;럼,문,TRUE,6331.5,yes
1,testing,4,17,B,retrieval,5,2,검,검,표;보;뿌;익;측;럼,뜻,FALSE,7209.900000035763,no
1,testing,4,17,B,retrieval,6,3,너,뜻,표;보;뿌;익;측;럼,뜻,TRUE,307.69999998807907,yes
1,testing,4,18,B,memory,1,0,석,NA,NA,NULL,NA,NA,NA
1,testing,4,18,B,memory,2,1,부,NA,NA,NULL,NA,NA,NA
1,testing,4,18,B,memory,3,2,심,NA,NA,NULL,NA,NA,NA
1,testing,4,18,B,memory,4,3,직,NA,NA,NULL,NA,NA,NA
1,testing,4,18,B,memory,5,4,처,NA,NA,NULL,NA,NA,NA
1,testing,4,18,B,memory,6,5,생,NA,NA,NULL,NA,NA,NA
1,testing,4,18,B,updating,1,1,부,조,NA,NULL,NA,NA,yes
1,testing,4,18,B,updating,2,3,직,표,NA,NULL,NA,NA,yes
1,testing,4,18,B,updating,3,0,석,까,NA,NULL,NA,NA,yes
1,testing,4,18,B,retrieval,1,2,심,심,효;위;큼;개;입;천,천,FALSE,1868.5,no
1,testing,4,18,B,retrieval,2,4,처,처,효;위;큼;개;입;천,석,FALSE,1557.5999999642372,no
1,testing,4,18,B,retrieval,3,5,생,생,효;위;큼;개;입;천,석,FALSE,866.5999999642372,no
1,testing,4,18,B,retrieval,4,3,직,표,효;위;큼;개;입;천,표,TRUE,2480.199999988079,yes
1,testing,4,18,B,retrieval,5,1,부,조,효;위;큼;개;입;천,조,TRUE,2248,yes
1,testing,4,18,B,retrieval,6,0,석,까,효;위;큼;개;입;천,까,TRUE,1396.699999988079,yes
1,testing,4,19,B,memory,1,0,역,NA,NA,NULL,NA,NA,NA
1,testing,4,19,B,memory,2,1,렇,NA,NA,NULL,NA,NA,NA
1,testing,4,19,B,memory,3,2,벌,NA,NA,NULL,NA,NA,NA
1,testing,4,19,B,memory,4,3,맡,NA,NA,NULL,NA,NA,NA
1,testing,4,19,B,memory,5,4,명,NA,NA,NULL,NA,NA,NA
1,testing,4,19,B,memory,6,5,말,NA,NA,NULL,NA,NA,NA
1,testing,4,19,B,updating,1,0,역,효,NA,NULL,NA,NA,yes
1,testing,4,19,B,updating,2,4,명,뜻,NA,NULL,NA,NA,yes
1,testing,4,19,B,updating,3,3,맡,았,NA,NULL,NA,NA,yes
1,testing,4,19,B,retrieval,1,5,말,말,표;르;위;주;동;급,급,FALSE,1194.5,no
1,testing,4,19,B,retrieval,2,1,렇,렇,표;르;위;주;동;급,역,FALSE,971.3000000119209,no
1,testing,4,19,B,retrieval,3,3,맡,았,표;르;위;주;동;급,았,TRUE,4352.300000011921,yes
1,testing,4,19,B,retrieval,4,2,벌,벌,표;르;위;주;동;급,았,FALSE,1079.300000011921,no
1,testing,4,19,B,retrieval,5,0,역,효,표;르;위;주;동;급,효,TRUE,1434.8999999761581,yes
1,testing,4,19,B,retrieval,6,4,명,뜻,표;르;위;주;동;급,뜻,TRUE,439.39999997615814,yes
1,testing,4,20,A,memory,1,0,았,NA,NA,NULL,NA,NA,NA
1,testing,4,20,A,memory,2,1,뜻,NA,NA,NULL,NA,NA,NA
1,testing,4,20,A,memory,3,2,큼,NA,NA,NULL,NA,NA,NA
1,testing,4,20,A,memory,4,3,조,NA,NA,NULL,NA,NA,NA
1,testing,4,20,A,memory,5,4,보,NA,NA,NULL,NA,NA,NA
1,testing,4,20,A,memory,6,5,르,NA,NA,NULL,NA,NA,NA
1,testing,4,20,A,updating,1,5,르,택,NA,NULL,NA,NA,yes
1,testing,4,20,A,updating,2,1,뜻,철,NA,NULL,NA,NA,yes
1,testing,4,20,A,updating,3,0,았,모,NA,NULL,NA,NA,yes
1,testing,4,20,A,retrieval,1,1,뜻,철,위;효;표;억;청;권,조,FALSE,3669.600000023842,yes
1,testing,4,20,A,retrieval,2,0,았,모,위;효;표;억;청;권,모,TRUE,2711.600000023842,yes
1,testing,4,20,A,retrieval,3,4,보,보,위;효;표;억;청;권,보,TRUE,1048.0999999642372,no
1,testing,4,20,A,retrieval,4,5,르,택,위;효;표;억;청;권,택,TRUE,1024.5,yes
1,testing,4,20,A,retrieval,5,2,큼,큼,위;효;표;억;청;권,뜻,FALSE,316.10000002384186,no
1,testing,4,20,A,retrieval,6,3,조,조,위;효;표;억;청;권,았,FALSE,287.5,no
2,training,1,1,training,memory,1,0,위,NA,NA,NULL,NA,NA,NA
2,training,1,1,training,memory,2,1,보,NA,NA,NULL,NA,NA,NA
2,training,1,1,training,memory,3,2,았,NA,NA,NULL,NA,NA,NA
2,training,1,1,training,memory,4,3,뿌,NA,NA,NULL,NA,NA,NA
2,training,1,1,training,memory,5,4,조,NA,NA,NULL,NA,NA,NA
2,training,1,1,training,memory,6,5,뜻,NA,NA,NULL,NA,NA,NA
2,training,1,1,training,updating,1,0,위,효,NA,NULL,NA,NA,yes
2,training,1,1,training,updating,2,3,뿌,르,NA,NULL,NA,NA,yes
2,training,1,1,training,updating,3,5,뜻,까,NA,NULL,NA,NA,yes
2,training,1,1,training,retrieval,1,5,뜻,까,문;큼;표;각;히;버,뜻,FALSE,3530,yes
2,training,1,1,training,retrieval,2,3,뿌,르,문;큼;표;각;히;버,르,TRUE,15255,yes
2,training,1,1,training,retrieval,3,2,았,았,문;큼;표;각;히;버,았,TRUE,12519,no
2,training,1,1,training,retrieval,4,4,조,조,문;큼;표;각;히;버,뿌,FALSE,4091,no
2,training,1,1,training,retrieval,5,1,보,보,문;큼;표;각;히;버,보,TRUE,2992,no
2,training,1,1,training,retrieval,6,0,위,효,문;큼;표;각;히;버,위,FALSE,12008,yes
2,training,1,2,training,memory,1,0,큼,NA,NA,NULL,NA,NA,NA
2,training,1,2,training,memory,2,1,르,NA,NA,NULL,NA,NA,NA
2,training,1,2,training,memory,3,2,위,NA,NA,NULL,NA,NA,NA
2,training,1,2,training,memory,4,3,문,NA,NA,NULL,NA,NA,NA
2,training,1,2,training,memory,5,4,조,NA,NA,NULL,NA,NA,NA
2,training,1,2,training,memory,6,5,뿌,NA,NA,NULL,NA,NA,NA
2,training,1,2,training,updating,1,5,뿌,았,NA,NULL,NA,NA,yes
2,training,1,2,training,updating,2,3,문,뜻,NA,NULL,NA,NA,yes
2,training,1,2,training,updating,3,1,르,효,NA,NULL,NA,NA,yes
2,training,1,2,training,retrieval,1,3,문,뜻,까;보;표;저;찬;강,문,FALSE,11474,yes
2,training,1,2,training,retrieval,2,0,큼,큼,까;보;표;저;찬;강,큼,TRUE,11748,no
2,training,1,2,training,retrieval,3,5,뿌,았,까;보;표;저;찬;강,효,FALSE,18848,yes
2,training,1,2,training,retrieval,4,2,위,위,까;보;표;저;찬;강,았,FALSE,6037,no
2,training,1,2,training,retrieval,5,1,르,효,까;보;표;저;찬;강,르,FALSE,1520,yes
2,training,1,2,training,retrieval,6,4,조,조,까;보;표;저;찬;강,조,TRUE,2995,no
2,training,1,3,training,memory,1,0,르,NA,NA,NULL,NA,NA,NA
2,training,1,3,training,memory,2,1,문,NA,NA,NULL,NA,NA,NA
2,training,1,3,training,memory,3,2,위,NA,NA,NULL,NA,NA,NA
2,training,1,3,training,memory,4,3,조,NA,NA,NULL,NA,NA,NA
2,training,1,3,training,memory,5,4,표,NA,NA,NULL,NA,NA,NA
2,training,1,3,training,memory,6,5,효,NA,NA,NULL,NA,NA,NA
2,training,1,3,training,updating,1,0,르,큼,NA,NULL,NA,NA,yes
2,training,1,3,training,updating,2,5,효,보,NA,NULL,NA,NA,yes
2,training,1,3,training,updating,3,4,표,았,NA,NULL,NA,NA,yes
2,training,1,3,training,retrieval,1,3,조,조,뿌;까;뜻;말;러;느,조,TRUE,3011,no
2,training,1,3,training,retrieval,2,5,효,보,뿌;까;뜻;말;러;느,뿌,FALSE,8407,yes
2,training,1,3,training,retrieval,3,2,위,위,뿌;까;뜻;말;러;느,위,TRUE,7065,no
2,training,1,3,training,retrieval,4,4,표,았,뿌;까;뜻;말;러;느,표,FALSE,5396,yes
2,training,1,3,training,retrieval,5,1,문,문,뿌;까;뜻;말;러;느,큼,FALSE,9964,no
2,training,1,3,training,retrieval,6,0,르,큼,뿌;까;뜻;말;러;느,말,FALSE,10970,yes
2,training,1,4,training,memory,1,0,뿌,NA,NA,NULL,NA,NA,NA
2,training,1,4,training,memory,2,1,효,NA,NA,NULL,NA,NA,NA
2,training,1,4,training,memory,3,2,보,NA,NA,NULL,NA,NA,NA
2,training,1,4,training,memory,4,3,뜻,NA,NA,NULL,NA,NA,NA
2,training,1,4,training,memory,5,4,았,NA,NA,NULL,NA,NA,NA
2,training,1,4,training,memory,6,5,까,NA,NA,NULL,NA,NA,NA
2,training,1,4,training,updating,1,3,뜻,표,NA,NULL,NA,NA,yes
2,training,1,4,training,updating,2,2,보,조,NA,NULL,NA,NA,yes
2,training,1,4,training,updating,3,4,았,큼,NA,NULL,NA,NA,yes
2,training,1,4,training,retrieval,1,5,까,까,위;문;르;는;렌;후,았,FALSE,4421,no
2,training,1,4,training,retrieval,2,1,효,효,위;문;르;는;렌;후,후,FALSE,4432,no
2,training,1,4,training,retrieval,3,3,뜻,표,위;문;르;는;렌;후,표,TRUE,4773,yes
2,training,1,4,training,retrieval,4,0,뿌,뿌,위;문;르;는;렌;후,위,FALSE,8680,no
2,training,1,4,training,retrieval,5,4,았,큼,위;문;르;는;렌;후,효,FALSE,5006,yes
2,training,1,4,training,retrieval,6,2,보,조,위;문;르;는;렌;후,조,TRUE,1629,yes
2,training,1,5,training,memory,1,0,르,NA,NA,NULL,NA,NA,NA
2,training,1,5,training,memory,2,1,조,NA,NA,NULL,NA,NA,NA
2,training,1,5,training,memory,3,2,큼,NA,NA,NULL,NA,NA,NA
2,training,1,5,training,memory,4,3,뜻,NA,NA,NULL,NA,NA,NA
2,training,1,5,training,memory,5,4,표,NA,NA,NULL,NA,NA,NA
2,training,1,5,training,memory,6,5,효,NA,NA,NULL,NA,NA,NA
2,training,1,5,training,updating,1,3,뜻,문,NA,NULL,NA,NA,yes
2,training,1,5,training,updating,2,5,효,까,NA,NULL,NA,NA,yes
2,training,1,5,training,updating,3,0,르,위,NA,NULL,NA,NA,yes
2,training,1,5,training,retrieval,1,3,뜻,문,았;보;뿌;혐;세;면,NULL,FALSE,NA,yes
2,training,1,5,training,retrieval,2,0,르,위,았;보;뿌;혐;세;면,문,FALSE,721,yes
2,training,1,5,training,retrieval,3,4,표,표,았;보;뿌;혐;세;면,표,TRUE,4947,no
2,training,1,5,training,retrieval,4,2,큼,큼,았;보;뿌;혐;세;면,큼,TRUE,9099,no
2,training,1,5,training,retrieval,5,1,조,조,았;보;뿌;혐;세;면,조,TRUE,7954,no
2,training,1,5,training,retrieval,6,5,효,까,았;보;뿌;혐;세;면,효,FALSE,6753,yes
2,training,2,6,training,memory,1,0,뜻,NA,NA,NULL,NA,NA,NA
2,training,2,6,training,memory,2,1,았,NA,NA,NULL,NA,NA,NA
2,training,2,6,training,memory,3,2,큼,NA,NA,NULL,NA,NA,NA
2,training,2,6,training,memory,4,3,보,NA,NA,NULL,NA,NA,NA
2,training,2,6,training,memory,5,4,뿌,NA,NA,NULL,NA,NA,NA
2,training,2,6,training,memory,6,5,르,NA,NA,NULL,NA,NA,NA
2,training,2,6,training,updating,1,4,뿌,위,NA,NULL,NA,NA,yes
2,training,2,6,training,updating,2,5,르,표,NA,NULL,NA,NA,yes
2,training,2,6,training,updating,3,3,보,까,NA,NULL,NA,NA,yes
2,training,2,6,training,retrieval,1,1,았,았,조;문;효;묵;공;실,았,TRUE,10115,no
2,training,2,6,training,retrieval,2,0,뜻,뜻,조;문;효;묵;공;실,뜻,TRUE,9585,no
2,training,2,6,training,retrieval,3,4,뿌,위,조;문;효;묵;공;실,위,TRUE,5844,yes
2,training,2,6,training,retrieval,4,3,보,까,조;문;효;묵;공;실,위,FALSE,107,yes
2,training,2,6,training,retrieval,5,5,르,표,조;문;효;묵;공;실,표,TRUE,7194,yes
2,training,2,6,training,retrieval,6,2,큼,큼,조;문;효;묵;공;실,큼,TRUE,7667,no
2,training,2,7,training,memory,1,0,르,NA,NA,NULL,NA,NA,NA
2,training,2,7,training,memory,2,1,위,NA,NA,NULL,NA,NA,NA
2,training,2,7,training,memory,3,2,았,NA,NA,NULL,NA,NA,NA
2,training,2,7,training,memory,4,3,까,NA,NA,NULL,NA,NA,NA
2,training,2,7,training,memory,5,4,효,NA,NA,NULL,NA,NA,NA
2,training,2,7,training,memory,6,5,뿌,NA,NA,NULL,NA,NA,NA
2,training,2,7,training,updating,1,5,뿌,뜻,NA,NULL,NA,NA,yes
2,training,2,7,training,updating,2,4,효,큼,NA,NULL,NA,NA,yes
2,training,2,7,training,updating,3,0,르,문,NA,NULL,NA,NA,yes
2,training,2,7,training,retrieval,1,0,르,문,조;표;보;컫;통;처,문,TRUE,4713,yes
2,training,2,7,training,retrieval,2,1,위,위,조;표;보;컫;통;처,위,TRUE,7102,no
2,training,2,7,training,retrieval,3,5,뿌,뜻,조;표;보;컫;통;처,뜻,TRUE,6066,yes
2,training,2,7,training,retrieval,4,3,까,까,조;표;보;컫;통;처,까,TRUE,7145,no
2,training,2,7,training,retrieval,5,2,았,았,조;표;보;컫;통;처,았,TRUE,13102,no
2,training,2,7,training,retrieval,6,4,효,큼,조;표;보;컫;통;처,효,FALSE,2798,yes
2,training,2,8,training,memory,1,0,효,NA,NA,NULL,NA,NA,NA
2,training,2,8,training,memory,2,1,조,NA,NA,NULL,NA,NA,NA
2,training,2,8,training,memory,3,2,표,NA,NA,NULL,NA,NA,NA
2,training,2,8,training,memory,4,3,까,NA,NA,NULL,NA,NA,NA
2,training,2,8,training,memory,5,4,뜻,NA,NA,NULL,NA,NA,NA
2,training,2,8,training,memory,6,5,문,NA,NA,NULL,NA,NA,NA
2,training,2,8,training,updating,1,5,문,큼,NA,NULL,NA,NA,yes
2,training,2,8,training,updating,2,4,뜻,았,NA,NULL,NA,NA,yes
2,training,2,8,training,updating,3,1,조,보,NA,NULL,NA,NA,yes
2,training,2,8,training,retrieval,1,1,조,보,르;위;뿌;벌;임;차,보,TRUE,2323,yes
2,training,2,8,training,retrieval,2,5,문,큼,르;위;뿌;벌;임;차,큼,TRUE,4407,yes
2,training,2,8,training,retrieval,3,3,까,까,르;위;뿌;벌;임;차,까,TRUE,6940,no
2,training,2,8,training,retrieval,4,4,뜻,았,르;위;뿌;벌;임;차,았,TRUE,4902,yes
2,training,2,8,training,retrieval,5,2,표,표,르;위;뿌;벌;임;차,표,TRUE,1450,no
2,training,2,8,training,retrieval,6,0,효,효,르;위;뿌;벌;임;차,뿌,FALSE,9107,no
2,training,2,9,training,memory,1,0,문,NA,NA,NULL,NA,NA,NA
2,training,2,9,training,memory,2,1,큼,NA,NA,NULL,NA,NA,NA
2,training,2,9,training,memory,3,2,까,NA,NA,NULL,NA,NA,NA
2,training,2,9,training,memory,4,3,효,NA,NA,NULL,NA,NA,NA
2,training,2,9,training,memory,5,4,보,NA,NA,NULL,NA,NA,NA
2,training,2,9,training,memory,6,5,르,NA,NA,NULL,NA,NA,NA
2,training,2,9,training,updating,1,5,르,위,NA,NULL,NA,NA,yes
2,training,2,9,training,updating,2,4,보,았,NA,NULL,NA,NA,yes
2,training,2,9,training,updating,3,0,문,뿌,NA,NULL,NA,NA,yes
2,training,2,9,training,retrieval,1,2,까,까,뜻;조;표;서;최;첫,효,FALSE,5460,no
2,training,2,9,training,retrieval,2,1,큼,큼,뜻;조;표;서;최;첫,큼,TRUE,4624,no
2,training,2,9,training,retrieval,3,0,문,뿌,뜻;조;표;서;최;첫,문,FALSE,1339,yes
2,training,2,9,training,retrieval,4,5,르,위,뜻;조;표;서;최;첫,위,TRUE,4690,yes
2,training,2,9,training,retrieval,5,4,보,았,뜻;조;표;서;최;첫,았,TRUE,1302,yes
2,training,2,9,training,retrieval,6,3,효,효,뜻;조;표;서;최;첫,조,FALSE,4293,no
2,training,2,10,training,memory,1,0,뜻,NA,NA,NULL,NA,NA,NA
2,training,2,10,training,memory,2,1,표,NA,NA,NULL,NA,NA,NA
2,training,2,10,training,memory,3,2,뿌,NA,NA,NULL,NA,NA,NA
2,training,2,10,training,memory,4,3,큼,NA,NA,NULL,NA,NA,NA
2,training,2,10,training,memory,5,4,까,NA,NA,NULL,NA,NA,NA
2,training,2,10,training,memory,6,5,았,NA,NA,NULL,NA,NA,NA
2,training,2,10,training,updating,1,3,큼,조,NA,NULL,NA,NA,yes
2,training,2,10,training,updating,2,4,까,위,NA,NULL,NA,NA,yes
2,training,2,10,training,updating,3,0,뜻,르,NA,NULL,NA,NA,yes
2,training,2,10,training,retrieval,1,4,까,위,보;효;문;천;흉;소,위,TRUE,2674,yes
2,training,2,10,training,retrieval,2,5,았,았,보;효;문;천;흉;소,았,TRUE,1537,no
2,training,2,10,training,retrieval,3,2,뿌,뿌,보;효;문;천;흉;소,뿌,TRUE,3533,no
2,training,2,10,training,retrieval,4,1,표,표,보;효;문;천;흉;소,효,FALSE,5907,no
2,training,2,10,training,retrieval,5,3,큼,조,보;효;문;천;흉;소,조,TRUE,6222,yes
2,training,2,10,training,retrieval,6,0,뜻,르,보;효;문;천;흉;소,르,TRUE,5557,yes
2,training,3,11,training,memory,1,0,위,NA,NA,NULL,NA,NA,NA
2,training,3,11,training,memory,2,1,뜻,NA,NA,NULL,NA,NA,NA
2,training,3,11,training,memory,3,2,았,NA,NA,NULL,NA,NA,NA
2,training,3,11,training,memory,4,3,뿌,NA,NA,NULL,NA,NA,NA
2,training,3,11,training,memory,5,4,조,NA,NA,NULL,NA,NA,NA
2,training,3,11,training,memory,6,5,르,NA,NA,NULL,NA,NA,NA
2,training,3,11,training,updating,1,4,조,까,NA,NULL,NA,NA,yes
2,training,3,11,training,updating,2,3,뿌,문,NA,NULL,NA,NA,yes
2,training,3,11,training,updating,3,1,뜻,표,NA,NULL,NA,NA,yes
2,training,3,11,training,retrieval,1,3,뿌,문,효;보;큼;상;스;진,뿌,FALSE,4773,yes
2,training,3,11,training,retrieval,2,1,뜻,표,효;보;큼;상;스;진,르,FALSE,5286,yes
2,training,3,11,training,retrieval,3,5,르,르,효;보;큼;상;스;진,큼,FALSE,10046,no
2,training,3,11,training,retrieval,4,4,조,까,효;보;큼;상;스;진,까,TRUE,4328,yes
2,training,3,11,training,retrieval,5,0,위,위,효;보;큼;상;스;진,위,TRUE,3725,no
2,training,3,11,training,retrieval,6,2,았,았,효;보;큼;상;스;진,르,FALSE,5385,no
2,training,3,12,training,memory,1,0,조,NA,NA,NULL,NA,NA,NA
2,training,3,12,training,memory,2,1,표,NA,NA,NULL,NA,NA,NA
2,training,3,12,training,memory,3,2,문,NA,NA,NULL,NA,NA,NA
2,training,3,12,training,memory,4,3,보,NA,NA,NULL,NA,NA,NA
2,training,3,12,training,memory,5,4,까,NA,NA,NULL,NA,NA,NA
2,training,3,12,training,memory,6,5,위,NA,NA,NULL,NA,NA,NA
2,training,3,12,training,updating,1,2,문,효,NA,NULL,NA,NA,yes
2,training,3,12,training,updating,2,4,까,뿌,NA,NULL,NA,NA,yes
2,training,3,12,training,updating,3,5,위,큼,NA,NULL,NA,NA,yes
2,training,3,12,training,retrieval,1,5,위,큼,뜻;르;았;듣;은;익,큼,TRUE,3711,yes
2,training,3,12,training,retrieval,2,4,까,뿌,뜻;르;았;듣;은;익,뿌,TRUE,8567,yes
2,training,3,12,training,retrieval,3,3,보,보,뜻;르;았;듣;은;익,효,FALSE,8321,no
2,training,3,12,training,retrieval,4,2,문,효,뜻;르;았;듣;은;익,문,FALSE,1036,yes
2,training,3,12,training,retrieval,5,0,조,조,뜻;르;았;듣;은;익,조,TRUE,6456,no
2,training,3,12,training,retrieval,6,1,표,표,뜻;르;았;듣;은;익,표,TRUE,438,no
2,training,3,13,training,memory,1,0,표,NA,NA,NULL,NA,NA,NA
2,training,3,13,training,memory,2,1,뿌,NA,NA,NULL,NA,NA,NA
2,training,3,13,training,memory,3,2,르,NA,NA,NULL,NA,NA,NA
2,training,3,13,training,memory,4,3,았,NA,NA,NULL,NA,NA,NA
2,training,3,13,training,memory,5,4,문,NA,NA,NULL,NA,NA,NA
2,training,3,13,training,memory,6,5,까,NA,NA,NULL,NA,NA,NA
2,training,3,13,training,updating,1,3,았,큼,NA,NULL,NA,NA,yes
2,training,3,13,training,updating,2,5,까,위,NA,NULL,NA,NA,yes
2,training,3,13,training,updating,3,0,표,효,NA,NULL,NA,NA,yes
2,training,3,13,training,retrieval,1,2,르,르,조;뜻;보;맞;게;현,표,FALSE,4715,no
2,training,3,13,training,retrieval,2,0,표,효,조;뜻;보;맞;게;현,효,TRUE,8479,yes
2,training,3,13,training,retrieval,3,3,았,큼,조;뜻;보;맞;게;현,보,FALSE,8516,yes
2,training,3,13,training,retrieval,4,1,뿌,뿌,조;뜻;보;맞;게;현,조,FALSE,11441,no
2,training,3,13,training,retrieval,5,5,까,위,조;뜻;보;맞;게;현,위,TRUE,2172,yes
2,training,3,13,training,retrieval,6,4,문,문,조;뜻;보;맞;게;현,문,TRUE,4296,no
2,training,3,14,training,memory,1,0,뜻,NA,NA,NULL,NA,NA,NA
2,training,3,14,training,memory,2,1,보,NA,NA,NULL,NA,NA,NA
2,training,3,14,training,memory,3,2,문,NA,NA,NULL,NA,NA,NA
2,training,3,14,training,memory,4,3,르,NA,NA,NULL,NA,NA,NA
2,training,3,14,training,memory,5,4,효,NA,NA,NULL,NA,NA,NA
2,training,3,14,training,memory,6,5,았,NA,NA,NULL,NA,NA,NA
2,training,3,14,training,updating,1,5,았,까,NA,NULL,NA,NA,yes
2,training,3,14,training,updating,2,0,뜻,위,NA,NULL,NA,NA,yes
2,training,3,14,training,updating,3,3,르,뿌,NA,NULL,NA,NA,yes
2,training,3,14,training,retrieval,1,2,문,문,조;표;큼;율;살;화,문,TRUE,3414,no
2,training,3,14,training,retrieval,2,3,르,뿌,조;표;큼;율;살;화,뿌,TRUE,3297,yes
2,training,3,14,training,retrieval,3,0,뜻,위,조;표;큼;율;살;화,위,TRUE,5492,yes
2,training,3,14,training,retrieval,4,1,보,보,조;표;큼;율;살;화,보,TRUE,4345,no
2,training,3,14,training,retrieval,5,4,효,효,조;표;큼;율;살;화,르,FALSE,3196,no
2,training,3,14,training,retrieval,6,5,았,까,조;표;큼;율;살;화,까,TRUE,3172,yes
2,training,3,15,training,memory,1,0,뿌,NA,NA,NULL,NA,NA,NA
2,training,3,15,training,memory,2,1,표,NA,NA,NULL,NA,NA,NA
2,training,3,15,training,memory,3,2,큼,NA,NA,NULL,NA,NA,NA
2,training,3,15,training,memory,4,3,뜻,NA,NA,NULL,NA,NA,NA
2,training,3,15,training,memory,5,4,르,NA,NA,NULL,NA,NA,NA
2,training,3,15,training,memory,6,5,위,NA,NA,NULL,NA,NA,NA
2,training,3,15,training,updating,1,0,뿌,았,NA,NULL,NA,NA,yes
2,training,3,15,training,updating,2,5,위,효,NA,NULL,NA,NA,yes
2,training,3,15,training,updating,3,4,르,문,NA,NULL,NA,NA,yes
2,training,3,15,training,retrieval,1,5,위,효,조;까;보;쇄;때;열,효,TRUE,3237,yes
2,training,3,15,training,retrieval,2,2,큼,큼,조;까;보;쇄;때;열,문,FALSE,8938,no
2,training,3,15,training,retrieval,3,0,뿌,았,조;까;보;쇄;때;열,뿌,FALSE,5653,yes
2,training,3,15,training,retrieval,4,4,르,문,조;까;보;쇄;때;열,르,FALSE,3841,yes
2,training,3,15,training,retrieval,5,1,표,표,조;까;보;쇄;때;열,표,TRUE,2330,no
2,training,3,15,training,retrieval,6,3,뜻,뜻,조;까;보;쇄;때;열,뜻,TRUE,4155,no
2,training,4,16,training,memory,1,0,보,NA,NA,NULL,NA,NA,NA
2,training,4,16,training,memory,2,1,문,NA,NA,NULL,NA,NA,NA
2,training,4,16,training,memory,3,2,르,NA,NA,NULL,NA,NA,NA
2,training,4,16,training,memory,4,3,뿌,NA,NA,NULL,NA,NA,NA
2,training,4,16,training,memory,5,4,뜻,NA,NA,NULL,NA,NA,NA
2,training,4,16,training,memory,6,5,조,NA,NA,NULL,NA,NA,NA
2,training,4,16,training,updating,1,5,조,았,NA,NULL,NA,NA,yes
2,training,4,16,training,updating,2,4,뜻,위,NA,NULL,NA,NA,yes
2,training,4,16,training,updating,3,3,뿌,표,NA,NULL,NA,NA,yes
2,training,4,16,training,retrieval,1,2,르,르,까;큼;효;감;근;하,보,FALSE,2994,no
2,training,4,16,training,retrieval,2,5,조,았,까;큼;효;감;근;하,았,TRUE,3880,yes
2,training,4,16,training,retrieval,3,3,뿌,표,까;큼;효;감;근;하,표,TRUE,2549,yes
2,training,4,16,training,retrieval,4,4,뜻,위,까;큼;효;감;근;하,위,TRUE,1090,yes
2,training,4,16,training,retrieval,5,1,문,문,까;큼;효;감;근;하,큼,FALSE,7306,no
2,training,4,16,training,retrieval,6,0,보,보,까;큼;효;감;근;하,보,TRUE,3753,no
2,training,4,17,training,memory,1,0,뜻,NA,NA,NULL,NA,NA,NA
2,training,4,17,training,memory,2,1,뿌,NA,NA,NULL,NA,NA,NA
2,training,4,17,training,memory,3,2,았,NA,NA,NULL,NA,NA,NA
2,training,4,17,training,memory,4,3,문,NA,NA,NULL,NA,NA,NA
2,training,4,17,training,memory,5,4,위,NA,NA,NULL,NA,NA,NA
2,training,4,17,training,memory,6,5,르,NA,NA,NULL,NA,NA,NA
2,training,4,17,training,updating,1,2,았,표,NA,NULL,NA,NA,yes
2,training,4,17,training,updating,2,1,뿌,효,NA,NULL,NA,NA,yes
2,training,4,17,training,updating,3,0,뜻,보,NA,NULL,NA,NA,yes
2,training,4,17,training,retrieval,1,4,위,위,큼;까;조;옮;산;응,뜻,FALSE,9910,no
2,training,4,17,training,retrieval,2,3,문,문,큼;까;조;옮;산;응,문,TRUE,6233,no
2,training,4,17,training,retrieval,3,0,뜻,보,큼;까;조;옮;산;응,보,TRUE,3179,yes
2,training,4,17,training,retrieval,4,1,뿌,효,큼;까;조;옮;산;응,효,TRUE,2623,yes
2,training,4,17,training,retrieval,5,2,았,표,큼;까;조;옮;산;응,큼,FALSE,12784,yes
2,training,4,17,training,retrieval,6,5,르,르,큼;까;조;옮;산;응,위,FALSE,2104,no
2,training,4,18,training,memory,1,0,표,NA,NA,NULL,NA,NA,NA
2,training,4,18,training,memory,2,1,문,NA,NA,NULL,NA,NA,NA
2,training,4,18,training,memory,3,2,까,NA,NA,NULL,NA,NA,NA
2,training,4,18,training,memory,4,3,았,NA,NA,NULL,NA,NA,NA
2,training,4,18,training,memory,5,4,효,NA,NA,NULL,NA,NA,NA
2,training,4,18,training,memory,6,5,보,NA,NA,NULL,NA,NA,NA
2,training,4,18,training,updating,1,2,까,큼,NA,NULL,NA,NA,yes
2,training,4,18,training,updating,2,0,표,조,NA,NULL,NA,NA,yes
2,training,4,18,training,updating,3,1,문,위,NA,NULL,NA,NA,yes
2,training,4,18,training,retrieval,1,0,표,조,뿌;뜻;르;체;극;운,조,TRUE,2959,yes
2,training,4,18,training,retrieval,2,2,까,큼,뿌;뜻;르;체;극;운,았,FALSE,2798,yes
2,training,4,18,training,retrieval,3,5,보,보,뿌;뜻;르;체;극;운,보,TRUE,4397,no
2,training,4,18,training,retrieval,4,4,효,효,뿌;뜻;르;체;극;운,까,FALSE,3774,no
2,training,4,18,training,retrieval,5,1,문,위,뿌;뜻;르;체;극;운,큼,FALSE,3690,yes
2,training,4,18,training,retrieval,6,3,았,았,뿌;뜻;르;체;극;운,효,FALSE,7978,no
2,training,4,19,training,memory,1,0,큼,NA,NA,NULL,NA,NA,NA
2,training,4,19,training,memory,2,1,조,NA,NA,NULL,NA,NA,NA
2,training,4,19,training,memory,3,2,보,NA,NA,NULL,NA,NA,NA
2,training,4,19,training,memory,4,3,르,NA,NA,NULL,NA,NA,NA
2,training,4,19,training,memory,5,4,문,NA,NA,NULL,NA,NA,NA
2,training,4,19,training,memory,6,5,까,NA,NA,NULL,NA,NA,NA
2,training,4,19,training,updating,1,1,조,효,NA,NULL,NA,NA,yes
2,training,4,19,training,updating,2,5,까,았,NA,NULL,NA,NA,yes
2,training,4,19,training,updating,3,2,보,표,NA,NULL,NA,NA,yes
2,training,4,19,training,retrieval,1,4,문,문,뿌;뜻;위;독;년;획,효,FALSE,3378,no
2,training,4,19,training,retrieval,2,5,까,았,뿌;뜻;위;독;년;획,문,FALSE,14230,yes
2,training,4,19,training,retrieval,3,0,큼,큼,뿌;뜻;위;독;년;획,조,FALSE,1886,no
2,training,4,19,training,retrieval,4,2,보,표,뿌;뜻;위;독;년;획,표,TRUE,8339,yes
2,training,4,19,training,retrieval,5,3,르,르,뿌;뜻;위;독;년;획,큼,FALSE,7123,no
2,training,4,19,training,retrieval,6,1,조,효,뿌;뜻;위;독;년;획,보,FALSE,2337,yes
2,training,4,20,training,memory,1,0,효,NA,NA,NULL,NA,NA,NA
2,training,4,20,training,memory,2,1,문,NA,NA,NULL,NA,NA,NA
2,training,4,20,training,memory,3,2,까,NA,NA,NULL,NA,NA,NA
2,training,4,20,training,memory,4,3,보,NA,NA,NULL,NA,NA,NA
2,training,4,20,training,memory,5,4,뜻,NA,NA,NULL,NA,NA,NA
2,training,4,20,training,memory,6,5,표,NA,NA,NULL,NA,NA,NA
2,training,4,20,training,updating,1,0,효,조,NA,NULL,NA,NA,yes
2,training,4,20,training,updating,2,5,표,았,NA,NULL,NA,NA,yes
2,training,4,20,training,updating,3,3,보,뿌,NA,NULL,NA,NA,yes
2,training,4,20,training,retrieval,1,4,뜻,뜻,위;르;큼;제;명;역,뜻,TRUE,10116,no
2,training,4,20,training,retrieval,2,1,문,문,위;르;큼;제;명;역,문,TRUE,7983,no
2,training,4,20,training,retrieval,3,3,보,뿌,위;르;큼;제;명;역,뿌,TRUE,3611,yes
2,training,4,20,training,retrieval,4,2,까,까,위;르;큼;제;명;역,표,FALSE,3665,no
2,training,4,20,training,retrieval,5,0,효,조,위;르;큼;제;명;역,보,FALSE,7268,yes
2,training,4,20,training,retrieval,6,5,표,았,위;르;큼;제;명;역,았,TRUE,2230,yes
2,training,5,21,training,memory,1,0,조,NA,NA,NULL,NA,NA,NA
2,training,5,21,training,memory,2,1,위,NA,NA,NULL,NA,NA,NA
2,training,5,21,training,memory,3,2,문,NA,NA,NULL,NA,NA,NA
2,training,5,21,training,memory,4,3,표,NA,NA,NULL,NA,NA,NA
2,training,5,21,training,memory,5,4,르,NA,NA,NULL,NA,NA,NA
2,training,5,21,training,memory,6,5,까,NA,NA,NULL,NA,NA,NA
2,training,5,21,training,updating,1,2,문,효,NA,NULL,NA,NA,yes
2,training,5,21,training,updating,2,5,까,큼,NA,NULL,NA,NA,yes
2,training,5,21,training,updating,3,1,위,뜻,NA,NULL,NA,NA,yes
2,training,5,21,training,retrieval,1,0,조,조,았;보;뿌;박;회;디,조,TRUE,1566,no
2,training,5,21,training,retrieval,2,1,위,뜻,았;보;뿌;박;회;디,뜻,TRUE,2051,yes
2,training,5,21,training,retrieval,3,3,표,표,았;보;뿌;박;회;디,르,FALSE,6547,no
2,training,5,21,training,retrieval,4,4,르,르,았;보;뿌;박;회;디,까,FALSE,3423,no
2,training,5,21,training,retrieval,5,5,까,큼,았;보;뿌;박;회;디,뜻,FALSE,2969,yes
2,training,5,21,training,retrieval,6,2,문,효,았;보;뿌;박;회;디,문,FALSE,7171,yes
2,training,5,22,training,memory,1,0,효,NA,NA,NULL,NA,NA,NA
2,training,5,22,training,memory,2,1,큼,NA,NA,NULL,NA,NA,NA
2,training,5,22,training,memory,3,2,보,NA,NA,NULL,NA,NA,NA
2,training,5,22,training,memory,4,3,조,NA,NA,NULL,NA,NA,NA
2,training,5,22,training,memory,5,4,뿌,NA,NA,NULL,NA,NA,NA
2,training,5,22,training,memory,6,5,뜻,NA,NA,NULL,NA,NA,NA
2,training,5,22,training,updating,1,1,큼,까,NA,NULL,NA,NA,yes
2,training,5,22,training,updating,2,5,뜻,았,NA,NULL,NA,NA,yes
2,training,5,22,training,updating,3,4,뿌,표,NA,NULL,NA,NA,yes
2,training,5,22,training,retrieval,1,0,효,효,르;문;위;드;풍;술,르,FALSE,2401,no
2,training,5,22,training,retrieval,2,2,보,보,르;문;위;드;풍;술,뿌,FALSE,9940,no
2,training,5,22,training,retrieval,3,3,조,조,르;문;위;드;풍;술,조,TRUE,12099,no
2,training,5,22,training,retrieval,4,1,큼,까,르;문;위;드;풍;술,까,TRUE,10413,yes
2,training,5,22,training,retrieval,5,4,뿌,표,르;문;위;드;풍;술,표,TRUE,5663,yes
2,training,5,22,training,retrieval,6,5,뜻,았,르;문;위;드;풍;술,았,TRUE,2370,yes
2,training,5,23,training,memory,1,0,조,NA,NA,NULL,NA,NA,NA
2,training,5,23,training,memory,2,1,문,NA,NA,NULL,NA,NA,NA
2,training,5,23,training,memory,3,2,까,NA,NA,NULL,NA,NA,NA
2,training,5,23,training,memory,4,3,보,NA,NA,NULL,NA,NA,NA
2,training,5,23,training,memory,5,4,효,NA,NA,NULL,NA,NA,NA
2,training,5,23,training,memory,6,5,뿌,NA,NA,NULL,NA,NA,NA
2,training,5,23,training,updating,1,0,조,위,NA,NULL,NA,NA,yes
2,training,5,23,training,updating,2,5,뿌,표,NA,NULL,NA,NA,yes
2,training,5,23,training,updating,3,4,효,았,NA,NULL,NA,NA,yes
2,training,5,23,training,retrieval,1,5,뿌,표,큼;르;뜻;개;별;참,표,TRUE,2028,yes
2,training,5,23,training,retrieval,2,0,조,위,큼;르;뜻;개;별;참,위,TRUE,1816,yes
2,training,5,23,training,retrieval,3,1,문,문,큼;르;뜻;개;별;참,문,TRUE,5190,no
2,training,5,23,training,retrieval,4,2,까,까,큼;르;뜻;개;별;참,조,FALSE,4150,no
2,training,5,23,training,retrieval,5,3,보,보,큼;르;뜻;개;별;참,보,TRUE,2319,no
2,training,5,23,training,retrieval,6,4,효,았,큼;르;뜻;개;별;참,았,TRUE,3467,yes
2,training,5,24,training,memory,1,0,르,NA,NA,NULL,NA,NA,NA
2,training,5,24,training,memory,2,1,큼,NA,NA,NULL,NA,NA,NA
2,training,5,24,training,memory,3,2,위,NA,NA,NULL,NA,NA,NA
2,training,5,24,training,memory,4,3,뜻,NA,NA,NULL,NA,NA,NA
2,training,5,24,training,memory,5,4,조,NA,NA,NULL,NA,NA,NA
2,training,5,24,training,memory,6,5,효,NA,NA,NULL,NA,NA,NA
2,training,5,24,training,updating,1,2,위,보,NA,NULL,NA,NA,yes
2,training,5,24,training,updating,2,0,르,표,NA,NULL,NA,NA,yes
2,training,5,24,training,updating,3,4,조,문,NA,NULL,NA,NA,yes
2,training,5,24,training,retrieval,1,1,큼,큼,뿌;까;았;신;적;웠,큼,TRUE,4779,no
2,training,5,24,training,retrieval,2,5,효,효,뿌;까;았;신;적;웠,조,FALSE,9713,no
2,training,5,24,training,retrieval,3,0,르,표,뿌;까;았;신;적;웠,표,TRUE,9882,yes
2,training,5,24,training,retrieval,4,4,조,문,뿌;까;았;신;적;웠,조,FALSE,9857,yes
2,training,5,24,training,retrieval,5,2,위,보,뿌;까;았;신;적;웠,뜻,FALSE,5168,yes
2,training,5,24,training,retrieval,6,3,뜻,뜻,뿌;까;았;신;적;웠,보,FALSE,4848,no
2,training,5,25,training,memory,1,0,뿌,NA,NA,NULL,NA,NA,NA
2,training,5,25,training,memory,2,1,았,NA,NA,NULL,NA,NA,NA
2,training,5,25,training,memory,3,2,표,NA,NA,NULL,NA,NA,NA
2,training,5,25,training,memory,4,3,까,NA,NA,NULL,NA,NA,NA
2,training,5,25,training,memory,5,4,위,NA,NA,NULL,NA,NA,NA
2,training,5,25,training,memory,6,5,보,NA,NA,NULL,NA,NA,NA
2,training,5,25,training,updating,1,3,까,조,NA,NULL,NA,NA,yes
2,training,5,25,training,updating,2,5,보,효,NA,NULL,NA,NA,yes
2,training,5,25,training,updating,3,0,뿌,뜻,NA,NULL,NA,NA,yes
2,training,5,25,training,retrieval,1,5,보,효,문;큼;르;려;원;칭,효,TRUE,9408,yes
2,training,5,25,training,retrieval,2,2,표,표,문;큼;르;려;원;칭,표,TRUE,2823,no
2,training,5,25,training,retrieval,3,1,았,았,문;큼;르;려;원;칭,았,TRUE,1812,no
2,training,5,25,training,retrieval,4,3,까,조,문;큼;르;려;원;칭,까,FALSE,3659,yes
2,training,5,25,training,retrieval,5,0,뿌,뜻,문;큼;르;려;원;칭,뜻,TRUE,4695,yes
2,training,5,25,training,retrieval,6,4,위,위,문;큼;르;려;원;칭,효,FALSE,12332,no
2,training,6,26,training,memory,1,0,보,NA,NA,NULL,NA,NA,NA
2,training,6,26,training,memory,2,1,까,NA,NA,NULL,NA,NA,NA
2,training,6,26,training,memory,3,2,큼,NA,NA,NULL,NA,NA,NA
2,training,6,26,training,memory,4,3,뜻,NA,NA,NULL,NA,NA,NA
2,training,6,26,training,memory,5,4,조,NA,NA,NULL,NA,NA,NA
2,training,6,26,training,memory,6,5,문,NA,NA,NULL,NA,NA,NA
2,training,6,26,training,updating,1,3,뜻,았,NA,NULL,NA,NA,yes
2,training,6,26,training,updating,2,0,보,르,NA,NULL,NA,NA,yes
2,training,6,26,training,updating,3,5,문,위,NA,NULL,NA,NA,yes
2,training,6,26,training,retrieval,1,5,문,위,표;뿌;효;른;씨;뒤,위,TRUE,2794,yes
2,training,6,26,training,retrieval,2,2,큼,큼,표;뿌;효;른;씨;뒤,뜻,FALSE,3817,no
2,training,6,26,training,retrieval,3,3,뜻,았,표;뿌;효;른;씨;뒤,조,FALSE,8346,yes
2,training,6,26,training,retrieval,4,1,까,까,표;뿌;효;른;씨;뒤,까,TRUE,1932,no
2,training,6,26,training,retrieval,5,4,조,조,표;뿌;효;른;씨;뒤,표,FALSE,7432,no
2,training,6,26,training,retrieval,6,0,보,르,표;뿌;효;른;씨;뒤,보,FALSE,1569,yes
2,training,6,27,training,memory,1,0,뿌,NA,NA,NULL,NA,NA,NA
2,training,6,27,training,memory,2,1,보,NA,NA,NULL,NA,NA,NA
2,training,6,27,training,memory,3,2,조,NA,NA,NULL,NA,NA,NA
2,training,6,27,training,memory,4,3,르,NA,NA,NULL,NA,NA,NA
2,training,6,27,training,memory,5,4,았,NA,NA,NULL,NA,NA,NA
2,training,6,27,training,memory,6,5,효,NA,NA,NULL,NA,NA,NA
2,training,6,27,training,updating,1,0,뿌,까,NA,NULL,NA,NA,yes
2,training,6,27,training,updating,2,5,효,큼,NA,NULL,NA,NA,yes
2,training,6,27,training,updating,3,4,았,뜻,NA,NULL,NA,NA,yes
2,training,6,27,training,retrieval,1,3,르,르,문;표;위;시;자;맑,효,FALSE,9053,no
2,training,6,27,training,retrieval,2,0,뿌,까,문;표;위;시;자;맑,뿌,FALSE,1980,yes
2,training,6,27,training,retrieval,3,1,보,보,문;표;위;시;자;맑,보,TRUE,1310,no
2,training,6,27,training,retrieval,4,2,조,조,문;표;위;시;자;맑,조,TRUE,1075,no
2,training,6,27,training,retrieval,5,5,효,큼,문;표;위;시;자;맑,까,FALSE,1732,yes
2,training,6,27,training,retrieval,6,4,았,뜻,문;표;위;시;자;맑,뜻,TRUE,1105,yes
2,training,6,28,training,memory,1,0,뿌,NA,NA,NULL,NA,NA,NA
2,training,6,28,training,memory,2,1,표,NA,NA,NULL,NA,NA,NA
2,training,6,28,training,memory,3,2,조,NA,NA,NULL,NA,NA,NA
2,training,6,28,training,memory,4,3,르,NA,NA,NULL,NA,NA,NA
2,training,6,28,training,memory,5,4,까,NA,NA,NULL,NA,NA,NA
2,training,6,28,training,memory,6,5,위,NA,NA,NULL,NA,NA,NA
2,training,6,28,training,updating,1,2,조,큼,NA,NULL,NA,NA,yes
2,training,6,28,training,updating,2,4,까,았,NA,NULL,NA,NA,yes
2,training,6,28,training,updating,3,3,르,뜻,NA,NULL,NA,NA,yes
2,training,6,28,training,retrieval,1,5,위,위,효;보;문;정;경;든,까,FALSE,5199,no
2,training,6,28,training,retrieval,2,4,까,았,효;보;문;정;경;든,뜻,FALSE,1858,yes
2,training,6,28,training,retrieval,3,2,조,큼,효;보;문;정;경;든,르,FALSE,9289,yes
2,training,6,28,training,retrieval,4,3,르,뜻,효;보;문;정;경;든,위,FALSE,6045,yes
2,training,6,28,training,retrieval,5,0,뿌,뿌,효;보;문;정;경;든,뿌,TRUE,2130,no
2,training,6,28,training,retrieval,6,1,표,표,효;보;문;정;경;든,표,TRUE,1293,no
2,training,6,29,training,memory,1,0,뜻,NA,NA,NULL,NA,NA,NA
2,training,6,29,training,memory,2,1,표,NA,NA,NULL,NA,NA,NA
2,training,6,29,training,memory,3,2,위,NA,NA,NULL,NA,NA,NA
2,training,6,29,training,memory,4,3,까,NA,NA,NULL,NA,NA,NA
2,training,6,29,training,memory,5,4,조,NA,NA,NULL,NA,NA,NA
2,training,6,29,training,memory,6,5,문,NA,NA,NULL,NA,NA,NA
2,training,6,29,training,updating,1,5,문,보,NA,NULL,NA,NA,yes
2,training,6,29,training,updating,2,3,까,큼,NA,NULL,NA,NA,yes
2,training,6,29,training,updating,3,2,위,효,NA,NULL,NA,NA,yes
2,training,6,29,training,retrieval,1,5,문,보,았;르;뿌;민;해;잡,보,TRUE,2804,yes
2,training,6,29,training,retrieval,2,0,뜻,뜻,았;르;뿌;민;해;잡,뿌,FALSE,1814,no
2,training,6,29,training,retrieval,3,2,위,효,았;르;뿌;민;해;잡,까,FALSE,12212,yes
2,training,6,29,training,retrieval,4,4,조,조,았;르;뿌;민;해;잡,조,TRUE,13243,no
2,training,6,29,training,retrieval,5,3,까,큼,았;르;뿌;민;해;잡,까,FALSE,6779,yes
2,training,6,29,training,retrieval,6,1,표,표,았;르;뿌;민;해;잡,큼,FALSE,7457,no
2,training,6,30,training,memory,1,0,효,NA,NA,NULL,NA,NA,NA
2,training,6,30,training,memory,2,1,까,NA,NA,NULL,NA,NA,NA
2,training,6,30,training,memory,3,2,문,NA,NA,NULL,NA,NA,NA
2,training,6,30,training,memory,4,3,았,NA,NA,NULL,NA,NA,NA
2,training,6,30,training,memory,5,4,위,NA,NA,NULL,NA,NA,NA
2,training,6,30,training,memory,6,5,조,NA,NA,NULL,NA,NA,NA
2,training,6,30,training,updating,1,0,효,큼,NA,NULL,NA,NA,yes
2,training,6,30,training,updating,2,3,았,뜻,NA,NULL,NA,NA,yes
2,training,6,30,training,updating,3,2,문,르,NA,NULL,NA,NA,yes
2,training,6,30,training,retrieval,1,4,위,위,표;뿌;보;징;져;패,조,FALSE,5816,no
2,training,6,30,training,retrieval,2,3,았,뜻,표;뿌;보;징;져;패,뜻,TRUE,2712,yes
2,training,6,30,training,retrieval,3,5,조,조,표;뿌;보;징;져;패,위,FALSE,4981,no
2,training,6,30,training,retrieval,4,1,까,까,표;뿌;보;징;져;패,문,FALSE,10005,no
2,training,6,30,training,retrieval,5,2,문,르,표;뿌;보;징;져;패,르,TRUE,7212,yes
2,training,6,30,training,retrieval,6,0,효,큼,표;뿌;보;징;져;패,큼,TRUE,555,yes
2,testing,1,1,A,memory,1,0,표,NA,NA,NULL,NA,NA,NA
2,testing,1,1,A,memory,2,1,효,NA,NA,NULL,NA,NA,NA
2,testing,1,1,A,memory,3,2,뿌,NA,NA,NULL,NA,NA,NA
2,testing,1,1,A,memory,4,3,문,NA,NA,NULL,NA,NA,NA
2,testing,1,1,A,memory,5,4,위,NA,NA,NULL,NA,NA,NA
2,testing,1,1,A,memory,6,5,조,NA,NA,NULL,NA,NA,NA
2,testing,1,1,A,updating,1,2,뿌,순,NA,NULL,NA,NA,yes
2,testing,1,1,A,updating,2,4,위,달,NA,NULL,NA,NA,yes
2,testing,1,1,A,updating,3,1,효,빛,NA,NULL,NA,NA,yes
2,testing,1,1,A,retrieval,1,4,위,달,뜻;까;았;방;들;용,달,TRUE,2832,yes
2,testing,1,1,A,retrieval,2,1,효,빛,뜻;까;았;방;들;용,빛,TRUE,6785,yes
2,testing,1,1,A,retrieval,3,3,문,문,뜻;까;았;방;들;용,뿌,FALSE,4829,no
2,testing,1,1,A,retrieval,4,5,조,조,뜻;까;았;방;들;용,위,FALSE,1718,no
2,testing,1,1,A,retrieval,5,2,뿌,순,뜻;까;았;방;들;용,순,TRUE,5129,yes
2,testing,1,1,A,retrieval,6,0,표,표,뜻;까;았;방;들;용,뿌,FALSE,4837,no
2,testing,1,2,B,memory,1,0,토,NA,NA,NULL,NA,NA,NA
2,testing,1,2,B,memory,2,1,래,NA,NA,NULL,NA,NA,NA
2,testing,1,2,B,memory,3,2,급,NA,NA,NULL,NA,NA,NA
2,testing,1,2,B,memory,4,3,울,NA,NA,NULL,NA,NA,NA
2,testing,1,2,B,memory,5,4,된,NA,NA,NULL,NA,NA,NA
2,testing,1,2,B,memory,6,5,긴,NA,NA,NULL,NA,NA,NA
2,testing,1,2,B,updating,1,1,래,문,NA,NULL,NA,NA,yes
2,testing,1,2,B,updating,2,0,토,뜻,NA,NULL,NA,NA,yes
2,testing,1,2,B,updating,3,5,긴,았,NA,NULL,NA,NA,yes
2,testing,1,2,B,retrieval,1,5,긴,았,위;까;뿌;늘;뜨;겠,았,TRUE,1658,yes
2,testing,1,2,B,retrieval,2,2,급,급,위;까;뿌;늘;뜨;겠,늘,FALSE,2532,no
2,testing,1,2,B,retrieval,3,0,토,뜻,위;까;뿌;늘;뜨;겠,뜻,TRUE,1680,yes
2,testing,1,2,B,retrieval,4,4,된,된,위;까;뿌;늘;뜨;겠,된,TRUE,1810,no
2,testing,1,2,B,retrieval,5,3,울,울,위;까;뿌;늘;뜨;겠,늘,FALSE,6254,no
2,testing,1,2,B,retrieval,6,1,래,문,위;까;뿌;늘;뜨;겠,문,TRUE,5271,yes
2,testing,1,3,B,memory,1,0,청,NA,NA,NULL,NA,NA,NA
2,testing,1,3,B,memory,2,1,채,NA,NA,NULL,NA,NA,NA
2,testing,1,3,B,memory,3,2,높,NA,NA,NULL,NA,NA,NA
2,testing,1,3,B,memory,4,3,혹,NA,NA,NULL,NA,NA,NA
2,testing,1,3,B,memory,5,4,묻,NA,NA,NULL,NA,NA,NA
2,testing,1,3,B,memory,6,5,완,NA,NA,NULL,NA,NA,NA
2,testing,1,3,B,updating,1,0,청,르,NA,NULL,NA,NA,yes
2,testing,1,3,B,updating,2,3,혹,았,NA,NULL,NA,NA,yes
2,testing,1,3,B,updating,3,4,묻,문,NA,NULL,NA,NA,yes
2,testing,1,3,B,retrieval,1,1,채,채,뜻;까;뿌;일;설;날,채,TRUE,4648,no
2,testing,1,3,B,retrieval,2,2,높,높,뜻;까;뿌;일;설;날,혹,FALSE,9795,no
2,testing,1,3,B,retrieval,3,4,묻,문,뜻;까;뿌;일;설;날,문,TRUE,10952,yes
2,testing,1,3,B,retrieval,4,3,혹,았,뜻;까;뿌;일;설;날,았,TRUE,2876,yes
2,testing,1,3,B,retrieval,5,0,청,르,뜻;까;뿌;일;설;날,르,TRUE,3065,yes
2,testing,1,3,B,retrieval,6,5,완,완,뜻;까;뿌;일;설;날,높,FALSE,3777,no
2,testing,1,4,A,memory,1,0,뜻,NA,NA,NULL,NA,NA,NA
2,testing,1,4,A,memory,2,1,큼,NA,NA,NULL,NA,NA,NA
2,testing,1,4,A,memory,3,2,았,NA,NA,NULL,NA,NA,NA
2,testing,1,4,A,memory,4,3,문,NA,NA,NULL,NA,NA,NA
2,testing,1,4,A,memory,5,4,뿌,NA,NA,NULL,NA,NA,NA
2,testing,1,4,A,memory,6,5,효,NA,NA,NULL,NA,NA,NA
2,testing,1,4,A,updating,1,5,효,법,NA,NULL,NA,NA,yes
2,testing,1,4,A,updating,2,4,뿌,냉,NA,NULL,NA,NA,yes
2,testing,1,4,A,updating,3,3,문,그,NA,NULL,NA,NA,yes
2,testing,1,4,A,retrieval,1,0,뜻,뜻,르;보;조;기;탄;픔,뜻,TRUE,1519,no
2,testing,1,4,A,retrieval,2,5,효,법,르;보;조;기;탄;픔,법,TRUE,13242,yes
2,testing,1,4,A,retrieval,3,3,문,그,르;보;조;기;탄;픔,그,TRUE,1098,yes
2,testing,1,4,A,retrieval,4,2,았,았,르;보;조;기;탄;픔,았,TRUE,2024,no
2,testing,1,4,A,retrieval,5,1,큼,큼,르;보;조;기;탄;픔,큼,TRUE,3265,no
2,testing,1,4,A,retrieval,6,4,뿌,냉,르;보;조;기;탄;픔,냉,TRUE,2441,yes
2,testing,1,5,A,memory,1,0,조,NA,NA,NULL,NA,NA,NA
2,testing,1,5,A,memory,2,1,았,NA,NA,NULL,NA,NA,NA
2,testing,1,5,A,memory,3,2,르,NA,NA,NULL,NA,NA,NA
2,testing,1,5,A,memory,4,3,큼,NA,NA,NULL,NA,NA,NA
2,testing,1,5,A,memory,5,4,위,NA,NA,NULL,NA,NA,NA
2,testing,1,5,A,memory,6,5,뿌,NA,NA,NULL,NA,NA,NA
2,testing,1,5,A,updating,1,1,았,석,NA,NULL,NA,NA,yes
2,testing,1,5,A,updating,2,3,큼,아,NA,NULL,NA,NA,yes
2,testing,1,5,A,updating,3,4,위,칙,NA,NULL,NA,NA,yes
2,testing,1,5,A,retrieval,1,0,조,조,뜻;까;효;야;했;터,조,TRUE,1496,no
2,testing,1,5,A,retrieval,2,1,았,석,뜻;까;효;야;했;터,야,FALSE,12808,yes
2,testing,1,5,A,retrieval,3,3,큼,아,뜻;까;효;야;했;터,석,FALSE,10135,yes
2,testing,1,5,A,retrieval,4,2,르,르,뜻;까;효;야;했;터,르,TRUE,1920,no
2,testing,1,5,A,retrieval,5,4,위,칙,뜻;까;효;야;했;터,했,FALSE,4955,yes
2,testing,1,5,A,retrieval,6,5,뿌,뿌,뜻;까;효;야;했;터,뿌,TRUE,1573,no
2,testing,2,6,A,memory,1,0,위,NA,NA,NULL,NA,NA,NA
2,testing,2,6,A,memory,2,1,효,NA,NA,NULL,NA,NA,NA
2,testing,2,6,A,memory,3,2,뜻,NA,NA,NULL,NA,NA,NA
2,testing,2,6,A,memory,4,3,보,NA,NA,NULL,NA,NA,NA
2,testing,2,6,A,memory,5,4,조,NA,NA,NULL,NA,NA,NA
2,testing,2,6,A,memory,6,5,까,NA,NA,NULL,NA,NA,NA
2,testing,2,6,A,updating,1,2,뜻,렵,NA,NULL,NA,NA,yes
2,testing,2,6,A,updating,2,1,효,선,NA,NULL,NA,NA,yes
2,testing,2,6,A,updating,3,5,까,혀,NA,NULL,NA,NA,yes
2,testing,2,6,A,retrieval,1,1,효,선,표;았;큼;집;범;인,렵,FALSE,8259,yes
2,testing,2,6,A,retrieval,2,3,보,보,표;았;큼;집;범;인,조,FALSE,8616,no
2,testing,2,6,A,retrieval,3,0,위,위,표;았;큼;집;범;인,효,FALSE,2111,no
2,testing,2,6,A,retrieval,4,2,뜻,렵,표;았;큼;집;범;인,뜻,FALSE,1368,yes
2,testing,2,6,A,retrieval,5,4,조,조,표;았;큼;집;범;인,위,FALSE,4668,no
2,testing,2,6,A,retrieval,6,5,까,혀,표;았;큼;집;범;인,보,FALSE,2471,yes
2,testing,2,7,A,memory,1,0,뿌,NA,NA,NULL,NA,NA,NA
2,testing,2,7,A,memory,2,1,았,NA,NA,NULL,NA,NA,NA
2,testing,2,7,A,memory,3,2,표,NA,NA,NULL,NA,NA,NA
2,testing,2,7,A,memory,4,3,위,NA,NA,NULL,NA,NA,NA
2,testing,2,7,A,memory,5,4,뜻,NA,NA,NULL,NA,NA,NA
2,testing,2,7,A,memory,6,5,큼,NA,NA,NULL,NA,NA,NA
2,testing,2,7,A,updating,1,0,뿌,대,NA,NULL,NA,NA,yes
2,testing,2,7,A,updating,2,4,뜻,렇,NA,NULL,NA,NA,yes
2,testing,2,7,A,updating,3,1,았,행,NA,NULL,NA,NA,yes
2,testing,2,7,A,retrieval,1,2,표,표,까;보;르;미;숙;권,표,TRUE,1648,no
2,testing,2,7,A,retrieval,2,3,위,위,까;보;르;미;숙;권,뜻,FALSE,2423,no
2,testing,2,7,A,retrieval,3,0,뿌,대,까;보;르;미;숙;권,렇,FALSE,8883,yes
2,testing,2,7,A,retrieval,4,5,큼,큼,까;보;르;미;숙;권,위,FALSE,4656,no
2,testing,2,7,A,retrieval,5,1,았,행,까;보;르;미;숙;권,행,TRUE,962,yes
2,testing,2,7,A,retrieval,6,4,뜻,렇,까;보;르;미;숙;권,았,FALSE,7108,yes
2,testing,2,8,B,memory,1,0,워,NA,NA,NULL,NA,NA,NA
2,testing,2,8,B,memory,2,1,와,NA,NA,NULL,NA,NA,NA
2,testing,2,8,B,memory,3,2,격,NA,NA,NULL,NA,NA,NA
2,testing,2,8,B,memory,4,3,쉽,NA,NA,NULL,NA,NA,NA
2,testing,2,8,B,memory,5,4,배,NA,NA,NULL,NA,NA,NA
2,testing,2,8,B,memory,6,5,런,NA,NA,NULL,NA,NA,NA
2,testing,2,8,B,updating,1,4,배,위,NA,NULL,NA,NA,yes
2,testing,2,8,B,updating,2,1,와,뿌,NA,NULL,NA,NA,yes
2,testing,2,8,B,updating,3,3,쉽,큼,NA,NULL,NA,NA,yes
2,testing,2,8,B,retrieval,1,5,런,런,문;표;조;피;로;랑,격,FALSE,8421,no
2,testing,2,8,B,retrieval,2,0,워,워,문;표;조;피;로;랑,위,FALSE,2723,no
2,testing,2,8,B,retrieval,3,3,쉽,큼,문;표;조;피;로;랑,랑,FALSE,11537,yes
2,testing,2,8,B,retrieval,4,2,격,격,문;표;조;피;로;랑,배,FALSE,7875,no
2,testing,2,8,B,retrieval,5,4,배,위,문;표;조;피;로;랑,뿌,FALSE,4998,yes
2,testing,2,8,B,retrieval,6,1,와,뿌,문;표;조;피;로;랑,위,FALSE,4316,yes
2,testing,2,9,B,memory,1,0,업,NA,NA,NULL,NA,NA,NA
2,testing,2,9,B,memory,2,1,부,NA,NA,NULL,NA,NA,NA
2,testing,2,9,B,memory,3,2,월,NA,NA,NULL,NA,NA,NA
2,testing,2,9,B,memory,4,3,활,NA,NA,NULL,NA,NA,NA
2,testing,2,9,B,memory,5,4,료,NA,NA,NULL,NA,NA,NA
2,testing,2,9,B,memory,6,5,고,NA,NA,NULL,NA,NA,NA
2,testing,2,9,B,updating,1,0,업,았,NA,NULL,NA,NA,yes
2,testing,2,9,B,updating,2,3,활,효,NA,NULL,NA,NA,yes
2,testing,2,9,B,updating,3,1,부,위,NA,NULL,NA,NA,yes
2,testing,2,9,B,retrieval,1,0,업,았,까;문;표;것;규;낼,았,TRUE,1329,yes
2,testing,2,9,B,retrieval,2,4,료,료,까;문;표;것;규;낼,활,FALSE,7346,no
2,testing,2,9,B,retrieval,3,2,월,월,까;문;표;것;규;낼,효,FALSE,3079,no
2,testing,2,9,B,retrieval,4,3,활,효,까;문;표;것;규;낼,월,FALSE,4217,yes
2,testing,2,9,B,retrieval,5,1,부,위,까;문;표;것;규;낼,위,TRUE,2604,yes
2,testing,2,9,B,retrieval,6,5,고,고,까;문;표;것;규;낼,고,TRUE,1496,no
2,testing,2,10,A,memory,1,0,았,NA,NA,NULL,NA,NA,NA
2,testing,2,10,A,memory,2,1,큼,NA,NA,NULL,NA,NA,NA
2,testing,2,10,A,memory,3,2,표,NA,NA,NULL,NA,NA,NA
2,testing,2,10,A,memory,4,3,르,NA,NA,NULL,NA,NA,NA
2,testing,2,10,A,memory,5,4,위,NA,NA,NULL,NA,NA,NA
2,testing,2,10,A,memory,6,5,효,NA,NA,NULL,NA,NA,NA
2,testing,2,10,A,updating,1,1,큼,었,NA,NULL,NA,NA,yes
2,testing,2,10,A,updating,2,5,효,를,NA,NULL,NA,NA,yes
2,testing,2,10,A,updating,3,3,르,점,NA,NULL,NA,NA,yes
2,testing,2,10,A,retrieval,1,0,았,았,까;문;조;능;환;더,았,TRUE,2952,no
2,testing,2,10,A,retrieval,2,2,표,표,까;문;조;능;환;더,효,FALSE,2687,no
2,testing,2,10,A,retrieval,3,1,큼,었,까;문;조;능;환;더,았,FALSE,2244,yes
2,testing,2,10,A,retrieval,4,4,위,위,까;문;조;능;환;더,표,FALSE,7518,no
2,testing,2,10,A,retrieval,5,3,르,점,까;문;조;능;환;더,점,TRUE,7995,yes
2,testing,2,10,A,retrieval,6,5,효,를,까;문;조;능;환;더,를,TRUE,937,yes
2,testing,3,11,B,memory,1,0,호,NA,NA,NULL,NA,NA,NA
2,testing,3,11,B,memory,2,1,압,NA,NA,NULL,NA,NA,NA
2,testing,3,11,B,memory,3,2,이,NA,NA,NULL,NA,NA,NA
2,testing,3,11,B,memory,4,3,되,NA,NA,NULL,NA,NA,NA
2,testing,3,11,B,memory,5,4,름,NA,NA,NULL,NA,NA,NA
2,testing,3,11,B,memory,6,5,률,NA,NA,NULL,NA,NA,NA
2,testing,3,11,B,updating,1,0,호,뿌,NA,NULL,NA,NA,yes
2,testing,3,11,B,updating,2,1,압,큼,NA,NULL,NA,NA,yes
2,testing,3,11,B,updating,3,4,름,효,NA,NULL,NA,NA,yes
2,testing,3,11,B,retrieval,1,0,호,뿌,위;조;르;영;족;주,뿌,TRUE,1810,yes
2,testing,3,11,B,retrieval,2,1,압,큼,위;조;르;영;족;주,큼,TRUE,1684,yes
2,testing,3,11,B,retrieval,3,2,이,이,위;조;르;영;족;주,이,TRUE,1994,no
2,testing,3,11,B,retrieval,4,4,름,효,위;조;르;영;족;주,큼,FALSE,9792,yes
2,testing,3,11,B,retrieval,5,3,되,되,위;조;르;영;족;주,되,TRUE,3348,no
2,testing,3,11,B,retrieval,6,5,률,률,위;조;르;영;족;주,률,TRUE,2443,no
2,testing,3,12,B,memory,1,0,쩔,NA,NA,NULL,NA,NA,NA
2,testing,3,12,B,memory,2,1,힘,NA,NA,NULL,NA,NA,NA
2,testing,3,12,B,memory,3,2,튜,NA,NA,NULL,NA,NA,NA
2,testing,3,12,B,memory,4,3,오,NA,NA,NULL,NA,NA,NA
2,testing,3,12,B,memory,5,4,변,NA,NA,NULL,NA,NA,NA
2,testing,3,12,B,memory,6,5,띤,NA,NA,NULL,NA,NA,NA
2,testing,3,12,B,updating,1,0,쩔,보,NA,NULL,NA,NA,yes
2,testing,3,12,B,updating,2,3,오,위,NA,NULL,NA,NA,yes
2,testing,3,12,B,updating,3,2,튜,큼,NA,NULL,NA,NA,yes
2,testing,3,12,B,retrieval,1,3,오,위,까;르;표;전;거;못,위,TRUE,4055,yes
2,testing,3,12,B,retrieval,2,0,쩔,보,까;르;표;전;거;못,보,TRUE,5544,yes
2,testing,3,12,B,retrieval,3,1,힘,힘,까;르;표;전;거;못,쩔,FALSE,3295,no
2,testing,3,12,B,retrieval,4,4,변,변,까;르;표;전;거;못,힘,FALSE,8696,no
2,testing,3,12,B,retrieval,5,2,튜,큼,까;르;표;전;거;못,큼,TRUE,1449,yes
2,testing,3,12,B,retrieval,6,5,띤,띤,까;르;표;전;거;못,변,FALSE,5608,no
2,testing,3,13,A,memory,1,0,뜻,NA,NA,NULL,NA,NA,NA
2,testing,3,13,A,memory,2,1,문,NA,NA,NULL,NA,NA,NA
2,testing,3,13,A,memory,3,2,큼,NA,NA,NULL,NA,NA,NA
2,testing,3,13,A,memory,4,3,위,NA,NA,NULL,NA,NA,NA
2,testing,3,13,A,memory,5,4,르,NA,NA,NULL,NA,NA,NA
2,testing,3,13,A,memory,6,5,보,NA,NA,NULL,NA,NA,NA
2,testing,3,13,A,updating,1,4,르,동,NA,NULL,NA,NA,yes
2,testing,3,13,A,updating,2,3,위,럼,NA,NULL,NA,NA,yes
2,testing,3,13,A,updating,3,1,문,밟,NA,NULL,NA,NA,yes
2,testing,3,13,A,retrieval,1,3,위,럼,표;조;까;육;께;탈,럼,TRUE,9412,yes
2,testing,3,13,A,retrieval,2,0,뜻,뜻,표;조;까;육;께;탈,뜻,TRUE,2132,no
2,testing,3,13,A,retrieval,3,5,보,보,표;조;까;육;께;탈,보,TRUE,4322,no
2,testing,3,13,A,retrieval,4,1,문,밟,표;조;까;육;께;탈,밟,TRUE,4825,yes
2,testing,3,13,A,retrieval,5,4,르,동,표;조;까;육;께;탈,문,FALSE,7666,yes
2,testing,3,13,A,retrieval,6,2,큼,큼,표;조;까;육;께;탈,큼,TRUE,2784,no
2,testing,3,14,B,memory,1,0,베,NA,NA,NULL,NA,NA,NA
2,testing,3,14,B,memory,2,1,또,NA,NA,NULL,NA,NA,NA
2,testing,3,14,B,memory,3,2,혈,NA,NA,NULL,NA,NA,NA
2,testing,3,14,B,memory,4,3,휴,NA,NA,NULL,NA,NA,NA
2,testing,3,14,B,memory,5,4,여,NA,NA,NULL,NA,NA,NA
2,testing,3,14,B,memory,6,5,나,NA,NA,NULL,NA,NA,NA
2,testing,3,14,B,updating,1,1,또,았,NA,NULL,NA,NA,yes
2,testing,3,14,B,updating,2,0,베,뜻,NA,NULL,NA,NA,yes
2,testing,3,14,B,updating,3,3,휴,르,NA,NULL,NA,NA,yes
2,testing,3,14,B,retrieval,1,2,혈,혈,뿌;큼;까;포;삼;중,베,FALSE,4645,no
2,testing,3,14,B,retrieval,2,3,휴,르,뿌;큼;까;포;삼;중,르,TRUE,3126,yes
2,testing,3,14,B,retrieval,3,5,나,나,뿌;큼;까;포;삼;중,나,TRUE,11786,no
2,testing,3,14,B,retrieval,4,0,베,뜻,뿌;큼;까;포;삼;중,뜻,TRUE,1954,yes
2,testing,3,14,B,retrieval,5,1,또,았,뿌;큼;까;포;삼;중,았,TRUE,8149,yes
2,testing,3,14,B,retrieval,6,4,여,여,뿌;큼;까;포;삼;중,휴,FALSE,6224,no
2,testing,3,15,B,memory,1,0,종,NA,NA,NULL,NA,NA,NA
2,testing,3,15,B,memory,2,1,축,NA,NA,NULL,NA,NA,NA
2,testing,3,15,B,memory,3,2,갈,NA,NA,NULL,NA,NA,NA
2,testing,3,15,B,memory,4,3,겨,NA,NA,NULL,NA,NA,NA
2,testing,3,15,B,memory,5,4,심,NA,NA,NULL,NA,NA,NA
2,testing,3,15,B,memory,6,5,안,NA,NA,NULL,NA,NA,NA
2,testing,3,15,B,updating,1,5,안,큼,NA,NULL,NA,NA,yes
2,testing,3,15,B,updating,2,4,심,표,NA,NULL,NA,NA,yes
2,testing,3,15,B,updating,3,3,겨,문,NA,NULL,NA,NA,yes
2,testing,3,15,B,retrieval,1,2,갈,갈,르;위;보;컨;빅;억,축,FALSE,10643,no
2,testing,3,15,B,retrieval,2,0,종,종,르;위;보;컨;빅;억,종,TRUE,6564,no
2,testing,3,15,B,retrieval,3,1,축,축,르;위;보;컨;빅;억,겨,FALSE,7526,no
2,testing,3,15,B,retrieval,4,3,겨,문,르;위;보;컨;빅;억,큼,FALSE,8354,yes
2,testing,3,15,B,retrieval,5,4,심,표,르;위;보;컨;빅;억,표,TRUE,1603,yes
2,testing,3,15,B,retrieval,6,5,안,큼,르;위;보;컨;빅;억,위,FALSE,2579,yes
2,testing,4,16,A,memory,1,0,큼,NA,NA,NULL,NA,NA,NA
2,testing,4,16,A,memory,2,1,뜻,NA,NA,NULL,NA,NA,NA
2,testing,4,16,A,memory,3,2,조,NA,NA,NULL,NA,NA,NA
2,testing,4,16,A,memory,4,3,표,NA,NA,NULL,NA,NA,NA
2,testing,4,16,A,memory,5,4,문,NA,NA,NULL,NA,NA,NA
2,testing,4,16,A,memory,6,5,뿌,NA,NA,NULL,NA,NA,NA
2,testing,4,16,A,updating,1,2,조,사,NA,NULL,NA,NA,yes
2,testing,4,16,A,updating,2,5,뿌,마,NA,NULL,NA,NA,yes
2,testing,4,16,A,updating,3,4,문,학,NA,NULL,NA,NA,yes
2,testing,4,16,A,retrieval,1,2,조,사,보;효;위;측;뿜;즐,사,TRUE,2715,yes
2,testing,4,16,A,retrieval,2,1,뜻,뜻,보;효;위;측;뿜;즐,뜻,TRUE,5516,no
2,testing,4,16,A,retrieval,3,5,뿌,마,보;효;위;측;뿜;즐,학,FALSE,6269,yes
2,testing,4,16,A,retrieval,4,4,문,학,보;효;위;측;뿜;즐,마,FALSE,2060,yes
2,testing,4,16,A,retrieval,5,3,표,표,보;효;위;측;뿜;즐,표,TRUE,3439,no
2,testing,4,16,A,retrieval,6,0,큼,큼,보;효;위;측;뿜;즐,큼,TRUE,1637,no
2,testing,4,17,A,memory,1,0,위,NA,NA,NULL,NA,NA,NA
2,testing,4,17,A,memory,2,1,큼,NA,NA,NULL,NA,NA,NA
2,testing,4,17,A,memory,3,2,르,NA,NA,NULL,NA,NA,NA
2,testing,4,17,A,memory,4,3,효,NA,NA,NULL,NA,NA,NA
2,testing,4,17,A,memory,5,4,표,NA,NA,NULL,NA,NA,NA
2,testing,4,17,A,memory,6,5,조,NA,NA,NULL,NA,NA,NA
2,testing,4,17,A,updating,1,2,르,존,NA,NULL,NA,NA,yes
2,testing,4,17,A,updating,2,1,큼,교,NA,NULL,NA,NA,yes
2,testing,4,17,A,updating,3,4,표,람,NA,NULL,NA,NA,yes
2,testing,4,17,A,retrieval,1,5,조,조,까;문;보;견;타;책,문,FALSE,8714,no
2,testing,4,17,A,retrieval,2,3,효,효,까;문;보;견;타;책,람,FALSE,10076,no
2,testing,4,17,A,retrieval,3,4,표,람,까;문;보;견;타;책,문,FALSE,7460,yes
2,testing,4,17,A,retrieval,4,0,위,위,까;문;보;견;타;책,큼,FALSE,5502,no
2,testing,4,17,A,retrieval,5,1,큼,교,까;문;보;견;타;책,르,FALSE,8360,yes
2,testing,4,17,A,retrieval,6,2,르,존,까;문;보;견;타;책,견,FALSE,1225,yes
2,testing,4,18,B,memory,1,0,례,NA,NA,NULL,NA,NA,NA
2,testing,4,18,B,memory,2,1,력,NA,NA,NULL,NA,NA,NA
2,testing,4,18,B,memory,3,2,식,NA,NA,NULL,NA,NA,NA
2,testing,4,18,B,memory,4,3,형,NA,NA,NULL,NA,NA,NA
2,testing,4,18,B,memory,5,4,습,NA,NA,NULL,NA,NA,NA
2,testing,4,18,B,memory,6,5,님,NA,NA,NULL,NA,NA,NA
2,testing,4,18,B,updating,1,0,례,르,NA,NULL,NA,NA,yes
2,testing,4,18,B,updating,2,4,습,문,NA,NULL,NA,NA,yes
2,testing,4,18,B,updating,3,2,식,큼,NA,NULL,NA,NA,yes
2,testing,4,18,B,retrieval,1,3,형,형,뿌;표;뜻;움;북;음,형,TRUE,9988,no
2,testing,4,18,B,retrieval,2,0,례,르,뿌;표;뜻;움;북;음,큼,FALSE,3633,yes
2,testing,4,18,B,retrieval,3,4,습,문,뿌;표;뜻;움;북;음,례,FALSE,7625,yes
2,testing,4,18,B,retrieval,4,1,력,력,뿌;표;뜻;움;북;음,뜻,FALSE,1539,no
2,testing,4,18,B,retrieval,5,2,식,큼,뿌;표;뜻;움;북;음,습,FALSE,1800,yes
2,testing,4,18,B,retrieval,6,5,님,님,뿌;표;뜻;움;북;음,음,FALSE,444,no
2,testing,4,19,A,memory,1,0,았,NA,NA,NULL,NA,NA,NA
2,testing,4,19,A,memory,2,1,표,NA,NA,NULL,NA,NA,NA
2,testing,4,19,A,memory,3,2,효,NA,NA,NULL,NA,NA,NA
2,testing,4,19,A,memory,4,3,뿌,NA,NA,NULL,NA,NA,NA
2,testing,4,19,A,memory,5,4,위,NA,NA,NULL,NA,NA,NA
2,testing,4,19,A,memory,6,5,르,NA,NA,NULL,NA,NA,NA
2,testing,4,19,A,updating,1,3,뿌,륙,NA,NULL,NA,NA,yes
2,testing,4,19,A,updating,2,4,위,알,NA,NULL,NA,NA,yes
2,testing,4,19,A,updating,3,0,았,합,NA,NULL,NA,NA,yes
2,testing,4,19,A,retrieval,1,2,효,효,문;큼;조;럽;준;비,효,TRUE,7853,no
2,testing,4,19,A,retrieval,2,0,았,합,문;큼;조;럽;준;비,합,TRUE,5483,yes
2,testing,4,19,A,retrieval,3,3,뿌,륙,문;큼;조;럽;준;비,알,FALSE,11071,yes
2,testing,4,19,A,retrieval,4,4,위,알,문;큼;조;럽;준;비,위,FALSE,10372,yes
2,testing,4,19,A,retrieval,5,1,표,표,문;큼;조;럽;준;비,표,TRUE,5026,no
2,testing,4,19,A,retrieval,6,5,르,르,문;큼;조;럽;준;비,르,TRUE,7910,no
2,testing,4,20,B,memory,1,0,외,NA,NA,NULL,NA,NA,NA
2,testing,4,20,B,memory,2,1,증,NA,NA,NULL,NA,NA,NA
2,testing,4,20,B,memory,3,2,수,NA,NA,NULL,NA,NA,NA
2,testing,4,20,B,memory,4,3,절,NA,NA,NULL,NA,NA,NA
2,testing,4,20,B,memory,5,4,분,NA,NA,NULL,NA,NA,NA
2,testing,4,20,B,memory,6,5,브,NA,NA,NULL,NA,NA,NA
2,testing,4,20,B,updating,1,5,브,뜻,NA,NULL,NA,NA,yes
2,testing,4,20,B,updating,2,3,절,표,NA,NULL,NA,NA,yes
2,testing,4,20,B,updating,3,0,외,조,NA,NULL,NA,NA,yes
2,testing,4,20,B,retrieval,1,3,절,표,효;위;보;구;혔;장,표,TRUE,1628,yes
2,testing,4,20,B,retrieval,2,4,분,분,효;위;보;구;혔;장,분,TRUE,12544,no
2,testing,4,20,B,retrieval,3,2,수,수,효;위;보;구;혔;장,수,TRUE,7246,no
2,testing,4,20,B,retrieval,4,5,브,뜻,효;위;보;구;혔;장,조,FALSE,5099,yes
2,testing,4,20,B,retrieval,5,1,증,증,효;위;보;구;혔;장,증,TRUE,4679,no
2,testing,4,20,B,retrieval,6,0,외,조,효;위;보;구;혔;장,뜻,FALSE,2131,yes
3,training,1,1,training,memory,1,0,효,NA,NA,NULL,NA,NA,NA
3,training,1,1,training,memory,2,1,까,NA,NA,NULL,NA,NA,NA
3,training,1,1,training,memory,3,2,뿌,NA,NA,NULL,NA,NA,NA
3,training,1,1,training,memory,4,3,큼,NA,NA,NULL,NA,NA,NA
3,training,1,1,training,memory,5,4,뜻,NA,NA,NULL,NA,NA,NA
3,training,1,1,training,memory,6,5,르,NA,NA,NULL,NA,NA,NA
3,training,1,1,training,updating,1,2,뿌,았,NA,NULL,NA,NA,yes
3,training,1,1,training,updating,2,0,효,조,NA,NULL,NA,NA,yes
3,training,1,1,training,updating,3,3,큼,표,NA,NULL,NA,NA,yes
3,training,1,1,training,retrieval,1,5,르,르,보;위;문;책;방;다,까,FALSE,7357.299999952316,no
3,training,1,1,training,retrieval,2,1,까,까,보;위;문;책;방;다,뿌,FALSE,1690.9000000357628,no
3,training,1,1,training,retrieval,3,3,큼,표,보;위;문;책;방;다,뿌,FALSE,876.4000000357628,yes
3,training,1,1,training,retrieval,4,4,뜻,뜻,보;위;문;책;방;다,았,FALSE,1503.9000000357628,no
3,training,1,1,training,retrieval,5,2,뿌,았,보;위;문;책;방;다,뿌,FALSE,872.9000000357628,yes
3,training,1,1,training,retrieval,6,0,효,조,보;위;문;책;방;다,보,FALSE,1408.1000000238419,yes
3,training,1,2,training,memory,1,0,조,NA,NA,NULL,NA,NA,NA
3,training,1,2,training,memory,2,1,효,NA,NA,NULL,NA,NA,NA
3,training,1,2,training,memory,3,2,까,NA,NA,NULL,NA,NA,NA
3,training,1,2,training,memory,4,3,큼,NA,NA,NULL,NA,NA,NA
3,training,1,2,training,memory,5,4,문,NA,NA,NULL,NA,NA,NA
3,training,1,2,training,memory,6,5,보,NA,NA,NULL,NA,NA,NA
3,training,1,2,training,updating,1,1,효,르,NA,NULL,NA,NA,yes
3,training,1,2,training,updating,2,2,까,뿌,NA,NULL,NA,NA,yes
3,training,1,2,training,updating,3,3,큼,뜻,NA,NULL,NA,NA,yes
3,training,1,2,training,retrieval,1,0,조,조,위;표;았;음;측;모,조,TRUE,4481.599999964237,no
3,training,1,2,training,retrieval,2,2,까,뿌,위;표;았;음;측;모,큼,FALSE,1839.0999999642372,yes
3,training,1,2,training,retrieval,3,4,문,문,위;표;았;음;측;모,뿌,FALSE,1352.699999988079,no
3,training,1,2,training,retrieval,4,3,큼,뜻,위;표;았;음;측;모,뜻,TRUE,1061.699999988079,yes
3,training,1,2,training,retrieval,5,5,보,보,위;표;았;음;측;모,보,TRUE,1388.7999999523163,no
3,training,1,2,training,retrieval,6,1,효,르,위;표;았;음;측;모,문,FALSE,1201.3999999761581,yes
3,training,1,3,training,memory,1,0,르,NA,NA,NULL,NA,NA,NA
3,training,1,3,training,memory,2,1,보,NA,NA,NULL,NA,NA,NA
3,training,1,3,training,memory,3,2,큼,NA,NA,NULL,NA,NA,NA
3,training,1,3,training,memory,4,3,았,NA,NA,NULL,NA,NA,NA
3,training,1,3,training,memory,5,4,효,NA,NA,NULL,NA,NA,NA
3,training,1,3,training,memory,6,5,까,NA,NA,NULL,NA,NA,NA
3,training,1,3,training,updating,1,3,았,위,NA,NULL,NA,NA,yes
3,training,1,3,training,updating,2,5,까,표,NA,NULL,NA,NA,yes
3,training,1,3,training,updating,3,0,르,뜻,NA,NULL,NA,NA,yes
3,training,1,3,training,retrieval,1,4,효,효,조;뿌;문;서;떡;결,위,FALSE,3046.5,no
3,training,1,3,training,retrieval,2,2,큼,큼,조;뿌;문;서;떡;결,큼,TRUE,875.7999999523163,no
3,training,1,3,training,retrieval,3,3,았,위,조;뿌;문;서;떡;결,조,FALSE,1011.1000000238419,yes
3,training,1,3,training,retrieval,4,0,르,뜻,조;뿌;문;서;떡;결,서,FALSE,915.4000000357628,yes
3,training,1,3,training,retrieval,5,5,까,표,조;뿌;문;서;떡;결,떡,FALSE,825.7999999523163,yes
3,training,1,3,training,retrieval,6,1,보,보,조;뿌;문;서;떡;결,았,FALSE,873.3999999761581,no
3,training,1,4,training,memory,1,0,았,NA,NA,NULL,NA,NA,NA
3,training,1,4,training,memory,2,1,까,NA,NA,NULL,NA,NA,NA
3,training,1,4,training,memory,3,2,효,NA,NA,NULL,NA,NA,NA
3,training,1,4,training,memory,4,3,뜻,NA,NA,NULL,NA,NA,NA
3,training,1,4,training,memory,5,4,르,NA,NA,NULL,NA,NA,NA
3,training,1,4,training,memory,6,5,문,NA,NA,NULL,NA,NA,NA
3,training,1,4,training,updating,1,5,문,뿌,NA,NULL,NA,NA,yes
3,training,1,4,training,updating,2,3,뜻,표,NA,NULL,NA,NA,yes
3,training,1,4,training,updating,3,0,았,조,NA,NULL,NA,NA,yes
3,training,1,4,training,retrieval,1,2,효,효,큼;보;위;났;또;냉,NULL,FALSE,NA,no
3,training,1,4,training,retrieval,2,4,르,르,큼;보;위;났;또;냉,NULL,FALSE,NA,no
3,training,1,4,training,retrieval,3,3,뜻,표,큼;보;위;났;또;냉,NULL,FALSE,NA,yes
3,training,1,4,training,retrieval,4,1,까,까,큼;보;위;났;또;냉,NULL,FALSE,NA,no
3,training,1,4,training,retrieval,5,0,았,조,큼;보;위;났;또;냉,NULL,FALSE,NA,yes
3,training,1,4,training,retrieval,6,5,문,뿌,큼;보;위;났;또;냉,NULL,FALSE,NA,yes
3,training,1,5,training,memory,1,0,르,NA,NA,NULL,NA,NA,NA
3,training,1,5,training,memory,2,1,문,NA,NA,NULL,NA,NA,NA
3,training,1,5,training,memory,3,2,까,NA,NA,NULL,NA,NA,NA
3,training,1,5,training,memory,4,3,조,NA,NA,NULL,NA,NA,NA
3,training,1,5,training,memory,5,4,표,NA,NA,NULL,NA,NA,NA
3,training,1,5,training,memory,6,5,뜻,NA,NA,NULL,NA,NA,NA
3,training,1,5,training,updating,1,2,까,효,NA,NULL,NA,NA,yes
3,training,1,5,training,updating,2,0,르,뿌,NA,NULL,NA,NA,yes
3,training,1,5,training,updating,3,4,표,큼,NA,NULL,NA,NA,yes
3,training,1,5,training,retrieval,1,3,조,조,보;위;았;석;심;드,뜻,FALSE,2649.900000035763,no
3,training,1,5,training,retrieval,2,2,까,효,보;위;았;석;심;드,효,TRUE,1672.2999999523163,yes
3,training,1,5,training,retrieval,3,1,문,문,보;위;았;석;심;드,문,TRUE,1848.8999999761581,no
3,training,1,5,training,retrieval,4,0,르,뿌,보;위;았;석;심;드,뿌,TRUE,1338.5,yes
3,training,1,5,training,retrieval,5,4,표,큼,보;위;았;석;심;드,표,FALSE,1148.699999988079,yes
3,training,1,5,training,retrieval,6,5,뜻,뜻,보;위;았;석;심;드,드,FALSE,804.3999999761581,no
3,training,2,6,training,memory,1,0,큼,NA,NA,NULL,NA,NA,NA
3,training,2,6,training,memory,2,1,았,NA,NA,NULL,NA,NA,NA
3,training,2,6,training,memory,3,2,효,NA,NA,NULL,NA,NA,NA
3,training,2,6,training,memory,4,3,조,NA,NA,NULL,NA,NA,NA
3,training,2,6,training,memory,5,4,보,NA,NA,NULL,NA,NA,NA
3,training,2,6,training,memory,6,5,위,NA,NA,NULL,NA,NA,NA
3,training,2,6,training,updating,1,5,위,표,NA,NULL,NA,NA,yes
3,training,2,6,training,updating,2,2,효,까,NA,NULL,NA,NA,yes
3,training,2,6,training,updating,3,1,았,뜻,NA,NULL,NA,NA,yes
3,training,2,6,training,retrieval,1,3,조,조,르;문;뿌;어;내;라,NULL,FALSE,NA,no
3,training,2,6,training,retrieval,2,4,보,보,르;문;뿌;어;내;라,았,FALSE,2602.900000035763,no
3,training,2,6,training,retrieval,3,0,큼,큼,르;문;뿌;어;내;라,효,FALSE,848.4000000357628,no
3,training,2,6,training,retrieval,4,5,위,표,르;문;뿌;어;내;라,큼,FALSE,1375,yes
3,training,2,6,training,retrieval,5,1,았,뜻,르;문;뿌;어;내;라,큼,FALSE,1672.199999988079,yes
3,training,2,6,training,retrieval,6,2,효,까,르;문;뿌;어;내;라,르,FALSE,1404.800000011921,yes
3,training,2,7,training,memory,1,0,르,NA,NA,NULL,NA,NA,NA
3,training,2,7,training,memory,2,1,표,NA,NA,NULL,NA,NA,NA
3,training,2,7,training,memory,3,2,뿌,NA,NA,NULL,NA,NA,NA
3,training,2,7,training,memory,4,3,조,NA,NA,NULL,NA,NA,NA
3,training,2,7,training,memory,5,4,까,NA,NA,NULL,NA,NA,NA
3,training,2,7,training,memory,6,5,위,NA,NA,NULL,NA,NA,NA
3,training,2,7,training,updating,1,1,표,뜻,NA,NULL,NA,NA,yes
