participant,block,trial,screenID,condition,stepID,position,initial_item,final_item,npl_items,answer,acc,rt,updPos
oyz,1,1,memory,kr,1,0,음,NA,NA,NULL,NA,NA,NA
oyz,1,1,memory,kr,2,1,조,NA,NA,NULL,NA,NA,NA
oyz,1,1,memory,kr,3,2,뿌,NA,NA,NULL,NA,NA,NA
oyz,1,1,memory,kr,4,3,문,NA,NA,NULL,NA,NA,NA
oyz,1,1,memory,kr,5,4,보,NA,NA,NULL,NA,NA,NA
oyz,1,1,memory,kr,6,5,위,NA,NA,NULL,NA,NA,NA
oyz,1,1,updating,kr,1,3,문,았,NA,NULL,NA,NA,yes
oyz,1,1,updating,kr,2,5,위,뜻,NA,NULL,NA,NA,yes
oyz,1,1,updating,kr,3,0,음,효,NA,NULL,NA,NA,yes
oyz,1,1,retrieval,kr,1,4,보,보,"까,르,휴,꾸,표,큼",효,FALSE,14543.100000000093,no
oyz,1,1,retrieval,kr,2,2,뿌,뿌,"까,르,휴,꾸,표,큼",뿌,TRUE,6910.5,no
oyz,1,1,retrieval,kr,3,3,문,았,"까,르,휴,꾸,표,큼",았,TRUE,6872.199999999953,yes
oyz,1,1,retrieval,kr,4,5,위,뜻,"까,르,휴,꾸,표,큼",뜻,TRUE,1445.5,yes
oyz,1,1,retrieval,kr,5,1,조,조,"까,르,휴,꾸,표,큼",조,TRUE,13852.900000000023,no
oyz,1,1,retrieval,kr,6,0,음,효,"까,르,휴,꾸,표,큼",휴,FALSE,9414.099999999977,yes
oyz,1,1,debrief,kr,NA,NA,NA,NA,NA,NULL,NA,NA,NA
oyz,1,2,memory,kr,1,0,보,NA,NA,NULL,NA,NA,NA
oyz,1,2,memory,kr,2,1,효,NA,NA,NULL,NA,NA,NA
oyz,1,2,memory,kr,3,2,르,NA,NA,NULL,NA,NA,NA
oyz,1,2,memory,kr,4,3,뜻,NA,NA,NULL,NA,NA,NA
oyz,1,2,memory,kr,5,4,았,NA,NA,NULL,NA,NA,NA
oyz,1,2,memory,kr,6,5,휴,NA,NA,NULL,NA,NA,NA
oyz,1,2,updating,kr,1,2,르,조,NA,NULL,NA,NA,yes
oyz,1,2,updating,kr,2,5,휴,표,NA,NULL,NA,NA,yes
oyz,1,2,updating,kr,3,1,효,음,NA,NULL,NA,NA,yes
oyz,1,2,retrieval,kr,1,5,휴,표,"문,뿌,위,큼,꾸,까",조,FALSE,17921.399999999907,yes
oyz,1,2,retrieval,kr,2,3,뜻,뜻,"문,뿌,위,큼,꾸,까",뜻,TRUE,1657.3000000000466,no
oyz,1,2,retrieval,kr,3,4,았,았,"문,뿌,위,큼,꾸,까",NULL,FALSE,NA,no
oyz,1,2,retrieval,kr,4,0,보,보,"문,뿌,위,큼,꾸,까",표,FALSE,14601.300000000047,no
oyz,1,2,retrieval,kr,5,1,효,음,"문,뿌,위,큼,꾸,까",르,FALSE,9514.599999999977,yes
oyz,1,2,retrieval,kr,6,2,르,조,"문,뿌,위,큼,꾸,까",았,FALSE,2610,yes
oyz,1,2,debrief,kr,NA,NA,NA,NA,NA,NULL,NA,NA,NA
oyz,1,3,memory,kr,1,0,뿌,NA,NA,NULL,NA,NA,NA
oyz,1,3,memory,kr,2,1,조,NA,NA,NULL,NA,NA,NA
oyz,1,3,memory,kr,3,2,보,NA,NA,NULL,NA,NA,NA
oyz,1,3,memory,kr,4,3,문,NA,NA,NULL,NA,NA,NA
oyz,1,3,memory,kr,5,4,까,NA,NA,NULL,NA,NA,NA
oyz,1,3,memory,kr,6,5,뜻,NA,NA,NULL,NA,NA,NA
oyz,1,3,updating,kr,1,1,조,위,NA,NULL,NA,NA,yes
oyz,1,3,updating,kr,2,2,보,음,NA,NULL,NA,NA,yes
oyz,1,3,updating,kr,3,5,뜻,았,NA,NULL,NA,NA,yes
oyz,1,3,retrieval,kr,1,1,조,위,"꾸,표,르,휴,효,큼",위,TRUE,3700.3000000000466,yes
oyz,1,3,retrieval,kr,2,0,뿌,뿌,"꾸,표,르,휴,효,큼",뿌,TRUE,6002,no
oyz,1,3,retrieval,kr,3,3,문,문,"꾸,표,르,휴,효,큼",문,TRUE,11033,no
oyz,1,3,retrieval,kr,4,2,보,음,"꾸,표,르,휴,효,큼",음,TRUE,14839,yes
oyz,1,3,retrieval,kr,5,4,까,까,"꾸,표,르,휴,효,큼",문,FALSE,9861.099999999977,no
oyz,1,3,retrieval,kr,6,5,뜻,았,"꾸,표,르,휴,효,큼",까,FALSE,2984,yes
oyz,1,3,debrief,kr,NA,NA,NA,NA,NA,NULL,NA,NA,NA
oyz,1,4,memory,kr,1,0,휴,NA,NA,NULL,NA,NA,NA
oyz,1,4,memory,kr,2,1,효,NA,NA,NULL,NA,NA,NA
oyz,1,4,memory,kr,3,2,큼,NA,NA,NULL,NA,NA,NA
oyz,1,4,memory,kr,4,3,문,NA,NA,NULL,NA,NA,NA
oyz,1,4,memory,kr,5,4,조,NA,NA,NULL,NA,NA,NA
oyz,1,4,memory,kr,6,5,뜻,NA,NA,NULL,NA,NA,NA
oyz,1,4,updating,kr,1,5,뜻,았,NA,NULL,NA,NA,yes
oyz,1,4,updating,kr,2,3,문,르,NA,NULL,NA,NA,yes
oyz,1,4,updating,kr,3,0,휴,위,NA,NULL,NA,NA,yes
oyz,1,4,retrieval,kr,1,3,문,르,"까,뿌,표,꾸,보,음",르,TRUE,8860.699999999953,yes
oyz,1,4,retrieval,kr,2,2,큼,큼,"까,뿌,표,꾸,보,음",큼,TRUE,7457.099999999977,no
oyz,1,4,retrieval,kr,3,4,조,조,"까,뿌,표,꾸,보,음",조,TRUE,11162.79999999993,no
oyz,1,4,retrieval,kr,4,5,뜻,았,"까,뿌,표,꾸,보,음",았,TRUE,8164.5,yes
oyz,1,4,retrieval,kr,5,0,휴,위,"까,뿌,표,꾸,보,음",위,TRUE,5841.800000000047,yes
oyz,1,4,retrieval,kr,6,1,효,효,"까,뿌,표,꾸,보,음",효,TRUE,3040,no
oyz,1,4,debrief,kr,NA,NA,NA,NA,NA,NULL,NA,NA,NA
oyz,1,5,memory,kr,1,0,았,NA,NA,NULL,NA,NA,NA
oyz,1,5,memory,kr,2,1,표,NA,NA,NULL,NA,NA,NA
oyz,1,5,memory,kr,3,2,조,NA,NA,NULL,NA,NA,NA
oyz,1,5,memory,kr,4,3,꾸,NA,NA,NULL,NA,NA,NA
oyz,1,5,memory,kr,5,4,큼,NA,NA,NULL,NA,NA,NA
oyz,1,5,memory,kr,6,5,효,NA,NA,NULL,NA,NA,NA
oyz,1,5,updating,kr,1,2,조,뿌,NA,NULL,NA,NA,yes
oyz,1,5,updating,kr,2,1,표,르,NA,NULL,NA,NA,yes
oyz,1,5,updating,kr,3,0,았,휴,NA,NULL,NA,NA,yes
oyz,1,5,retrieval,kr,1,1,표,르,"보,위,음,까,문,뜻",뿌,FALSE,3182.399999999907,yes
oyz,1,5,retrieval,kr,2,0,았,휴,"보,위,음,까,문,뜻",휴,TRUE,3269.5999999998603,yes
oyz,1,5,retrieval,kr,3,4,큼,큼,"보,위,음,까,문,뜻",NULL,FALSE,NA,no
oyz,1,5,retrieval,kr,4,2,조,뿌,"보,위,음,까,문,뜻",르,FALSE,3282.899999999907,yes
oyz,1,5,retrieval,kr,5,3,꾸,꾸,"보,위,음,까,문,뜻",꾸,TRUE,5399.90000000014,no
oyz,1,5,retrieval,kr,6,5,효,효,"보,위,음,까,문,뜻",뜻,FALSE,6507.799999999814,no
oyz,1,5,debrief,kr,NA,NA,NA,NA,NA,NULL,NA,NA,NA
oyz,1,6,memory,kr,1,0,르,NA,NA,NULL,NA,NA,NA
oyz,1,6,memory,kr,2,1,음,NA,NA,NULL,NA,NA,NA
oyz,1,6,memory,kr,3,2,표,NA,NA,NULL,NA,NA,NA
oyz,1,6,memory,kr,4,3,까,NA,NA,NULL,NA,NA,NA
oyz,1,6,memory,kr,5,4,꾸,NA,NA,NULL,NA,NA,NA
oyz,1,6,memory,kr,6,5,효,NA,NA,NULL,NA,NA,NA
oyz,1,6,updating,kr,1,0,르,휴,NA,NULL,NA,NA,yes
oyz,1,6,updating,kr,2,3,까,큼,NA,NULL,NA,NA,yes
oyz,1,6,updating,kr,3,4,꾸,문,NA,NULL,NA,NA,yes
oyz,1,6,retrieval,kr,1,1,음,음,"위,뿌,뜻,조,보,았",음,TRUE,6001.800000000047,no
oyz,1,6,retrieval,kr,2,2,표,표,"위,뿌,뜻,조,보,았",표,TRUE,8103.199999999953,no
oyz,1,6,retrieval,kr,3,4,꾸,문,"위,뿌,뜻,조,보,았",NULL,FALSE,NA,yes
oyz,1,6,retrieval,kr,4,0,르,휴,"위,뿌,뜻,조,보,았",까,FALSE,438.9000000001397,yes
oyz,1,6,retrieval,kr,5,5,효,효,"위,뿌,뜻,조,보,았",까,FALSE,3008,no
oyz,1,6,retrieval,kr,6,3,까,큼,"위,뿌,뜻,조,보,았",큼,TRUE,5827.699999999953,yes
oyz,1,6,debrief,kr,NA,NA,NA,NA,NA,NULL,NA,NA,NA
oyz,1,7,memory,kr,1,0,뿌,NA,NA,NULL,NA,NA,NA
oyz,1,7,memory,kr,2,1,문,NA,NA,NULL,NA,NA,NA
oyz,1,7,memory,kr,3,2,르,NA,NA,NULL,NA,NA,NA
oyz,1,7,memory,kr,4,3,음,NA,NA,NULL,NA,NA,NA
oyz,1,7,memory,kr,5,4,꾸,NA,NA,NULL,NA,NA,NA
oyz,1,7,memory,kr,6,5,효,NA,NA,NULL,NA,NA,NA
oyz,1,7,updating,kr,1,4,꾸,까,NA,NULL,NA,NA,yes
oyz,1,7,updating,kr,2,2,르,큼,NA,NULL,NA,NA,yes
oyz,1,7,updating,kr,3,0,뿌,위,NA,NULL,NA,NA,yes
oyz,1,7,retrieval,kr,1,5,효,효,"뜻,조,표,휴,았,보",휴,FALSE,18685,no
oyz,1,7,retrieval,kr,2,4,꾸,까,"뜻,조,표,휴,았,보",꾸,FALSE,11215.699999999953,yes
oyz,1,7,retrieval,kr,3,0,뿌,위,"뜻,조,표,휴,았,보",위,TRUE,2845.399999999907,yes
oyz,1,7,retrieval,kr,4,3,음,음,"뜻,조,표,휴,았,보",NULL,FALSE,NA,no
oyz,1,7,retrieval,kr,5,1,문,문,"뜻,조,표,휴,았,보",문,TRUE,4767,no
oyz,1,7,retrieval,kr,6,2,르,큼,"뜻,조,표,휴,았,보",르,FALSE,9468.5,yes
oyz,1,7,debrief,kr,NA,NA,NA,NA,NA,NULL,NA,NA,NA
oyz,1,8,memory,kr,1,0,뜻,NA,NA,NULL,NA,NA,NA
oyz,1,8,memory,kr,2,1,꾸,NA,NA,NULL,NA,NA,NA
oyz,1,8,memory,kr,3,2,까,NA,NA,NULL,NA,NA,NA
oyz,1,8,memory,kr,4,3,았,NA,NA,NULL,NA,NA,NA
oyz,1,8,memory,kr,5,4,음,NA,NA,NULL,NA,NA,NA
oyz,1,8,memory,kr,6,5,보,NA,NA,NULL,NA,NA,NA
oyz,1,8,updating,kr,1,0,뜻,큼,NA,NULL,NA,NA,yes
oyz,1,8,updating,kr,2,1,꾸,문,NA,NULL,NA,NA,yes
oyz,1,8,updating,kr,3,2,까,효,NA,NULL,NA,NA,yes
oyz,1,8,retrieval,kr,1,4,음,음,"르,위,뿌,휴,표,조",NULL,FALSE,NA,no
oyz,1,8,retrieval,kr,2,1,꾸,문,"르,위,뿌,휴,표,조",문,TRUE,8671.899999999907,yes
oyz,1,8,retrieval,kr,3,0,뜻,큼,"르,위,뿌,휴,표,조",큼,TRUE,2326.100000000093,yes
oyz,1,8,retrieval,kr,4,5,보,보,"르,위,뿌,휴,표,조",보,TRUE,4010.100000000093,no
oyz,1,8,retrieval,kr,5,2,까,효,"르,위,뿌,휴,표,조",효,TRUE,7944.699999999953,yes
oyz,1,8,retrieval,kr,6,3,았,았,"르,위,뿌,휴,표,조",았,TRUE,4414.299999999814,no
oyz,1,8,debrief,kr,NA,NA,NA,NA,NA,NULL,NA,NA,NA
oyz,2,1,memory,kr,1,0,큼,NA,NA,NULL,NA,NA,NA
oyz,2,1,memory,kr,2,1,까,NA,NA,NULL,NA,NA,NA
oyz,2,1,memory,kr,3,2,효,NA,NA,NULL,NA,NA,NA
oyz,2,1,memory,kr,4,3,문,NA,NA,NULL,NA,NA,NA
oyz,2,1,memory,kr,5,4,뜻,NA,NA,NULL,NA,NA,NA
oyz,2,1,memory,kr,6,5,꾸,NA,NA,NULL,NA,NA,NA
oyz,2,1,updating,kr,1,3,문,휴,NA,NULL,NA,NA,yes
oyz,2,1,updating,kr,2,0,큼,았,NA,NULL,NA,NA,yes
oyz,2,1,updating,kr,3,2,효,위,NA,NULL,NA,NA,yes
oyz,2,1,retrieval,kr,1,5,꾸,꾸,"르,뿌,음,보,조,표",꾸,TRUE,11434.399999999907,no
oyz,2,1,retrieval,kr,2,4,뜻,뜻,"르,뿌,음,보,조,표",문,FALSE,9461.600000000093,no
oyz,2,1,retrieval,kr,3,3,문,휴,"르,뿌,음,보,조,표",뜻,FALSE,18995.59999999986,yes
oyz,2,1,retrieval,kr,4,2,효,위,"르,뿌,음,보,조,표",효,FALSE,4508.300000000047,yes
oyz,2,1,retrieval,kr,5,1,까,까,"르,뿌,음,보,조,표",까,TRUE,5883.600000000093,no
oyz,2,1,retrieval,kr,6,0,큼,았,"르,뿌,음,보,조,표",큼,FALSE,1787.9000000001397,yes
oyz,2,1,debrief,kr,NA,NA,NA,NA,NA,NULL,NA,NA,NA
oyz,2,2,memory,kr,1,0,위,NA,NA,NULL,NA,NA,NA
oyz,2,2,memory,kr,2,1,르,NA,NA,NULL,NA,NA,NA
oyz,2,2,memory,kr,3,2,큼,NA,NA,NULL,NA,NA,NA
oyz,2,2,memory,kr,4,3,표,NA,NA,NULL,NA,NA,NA
oyz,2,2,memory,kr,5,4,조,NA,NA,NULL,NA,NA,NA
oyz,2,2,memory,kr,6,5,문,NA,NA,NULL,NA,NA,NA
oyz,2,2,updating,kr,1,0,위,효,NA,NULL,NA,NA,yes
oyz,2,2,updating,kr,2,3,표,았,NA,NULL,NA,NA,yes
oyz,2,2,updating,kr,3,4,조,꾸,NA,NULL,NA,NA,yes
oyz,2,2,retrieval,kr,1,5,문,문,"음,까,휴,뜻,보,뿌",효,FALSE,13466.699999999953,no
oyz,2,2,retrieval,kr,2,1,르,르,"음,까,휴,뜻,보,뿌",르,TRUE,12231.199999999953,no
oyz,2,2,retrieval,kr,3,4,조,꾸,"음,까,휴,뜻,보,뿌",꾸,TRUE,6374.399999999907,yes
oyz,2,2,retrieval,kr,4,3,표,았,"음,까,휴,뜻,보,뿌",았,TRUE,9628.699999999953,yes
oyz,2,2,retrieval,kr,5,0,위,효,"음,까,휴,뜻,보,뿌",효,TRUE,2037.6000000000931,yes
oyz,2,2,retrieval,kr,6,2,큼,큼,"음,까,휴,뜻,보,뿌",표,FALSE,11406,no
oyz,2,2,debrief,kr,NA,NA,NA,NA,NA,NULL,NA,NA,NA
oyz,2,3,memory,kr,1,0,까,NA,NA,NULL,NA,NA,NA
oyz,2,3,memory,kr,2,1,효,NA,NA,NULL,NA,NA,NA
oyz,2,3,memory,kr,3,2,음,NA,NA,NULL,NA,NA,NA
oyz,2,3,memory,kr,4,3,위,NA,NA,NULL,NA,NA,NA
oyz,2,3,memory,kr,5,4,조,NA,NA,NULL,NA,NA,NA
oyz,2,3,memory,kr,6,5,뿌,NA,NA,NULL,NA,NA,NA
oyz,2,3,updating,kr,1,5,뿌,뜻,NA,NULL,NA,NA,yes
oyz,2,3,updating,kr,2,1,효,르,NA,NULL,NA,NA,yes
oyz,2,3,updating,kr,3,4,조,았,NA,NULL,NA,NA,yes
oyz,2,3,retrieval,kr,1,4,조,았,"꾸,큼,휴,문,보,표",았,TRUE,5258.800000000047,yes
oyz,2,3,retrieval,kr,2,3,위,위,"꾸,큼,휴,문,보,표",NULL,FALSE,NA,no
oyz,2,3,retrieval,kr,3,5,뿌,뜻,"꾸,큼,휴,문,보,표",르,FALSE,6995,yes
oyz,2,3,retrieval,kr,4,2,음,음,"꾸,큼,휴,문,보,표",뿌,FALSE,5134.399999999907,no
oyz,2,3,retrieval,kr,5,1,효,르,"꾸,큼,휴,문,보,표",꾸,FALSE,2561.5999999998603,yes
oyz,2,3,retrieval,kr,6,0,까,까,"꾸,큼,휴,문,보,표",까,TRUE,2035.5999999998603,no
oyz,2,3,debrief,kr,NA,NA,NA,NA,NA,NULL,NA,NA,NA
oyz,2,4,memory,kr,1,0,문,NA,NA,NULL,NA,NA,NA
oyz,2,4,memory,kr,2,1,휴,NA,NA,NULL,NA,NA,NA
oyz,2,4,memory,kr,3,2,효,NA,NA,NULL,NA,NA,NA
oyz,2,4,memory,kr,4,3,음,NA,NA,NULL,NA,NA,NA
oyz,2,4,memory,kr,5,4,조,NA,NA,NULL,NA,NA,NA
oyz,2,4,memory,kr,6,5,위,NA,NA,NULL,NA,NA,NA
oyz,2,4,updating,kr,1,4,조,뿌,NA,NULL,NA,NA,yes
oyz,2,4,updating,kr,2,3,음,보,NA,NULL,NA,NA,yes
oyz,2,4,updating,kr,3,1,휴,큼,NA,NULL,NA,NA,yes
oyz,2,4,retrieval,kr,1,3,음,보,"까,르,뜻,꾸,표,았",음,FALSE,4650.5,yes
oyz,2,4,retrieval,kr,2,4,조,뿌,"까,르,뜻,꾸,표,았",조,FALSE,1649.6000000000931,yes
oyz,2,4,retrieval,kr,3,0,문,문,"까,르,뜻,꾸,표,았",문,TRUE,6532.5,no
oyz,2,4,retrieval,kr,4,2,효,효,"까,르,뜻,꾸,표,았",효,TRUE,6760.300000000047,no
oyz,2,4,retrieval,kr,5,5,위,위,"까,르,뜻,꾸,표,았",위,TRUE,3834,no
oyz,2,4,retrieval,kr,6,1,휴,큼,"까,르,뜻,꾸,표,았",휴,FALSE,5378.09999999986,yes
oyz,2,4,debrief,kr,NA,NA,NA,NA,NA,NULL,NA,NA,NA
oyz,2,5,memory,kr,1,0,르,NA,NA,NULL,NA,NA,NA
oyz,2,5,memory,kr,2,1,뿌,NA,NA,NULL,NA,NA,NA
oyz,2,5,memory,kr,3,2,위,NA,NA,NULL,NA,NA,NA
oyz,2,5,memory,kr,4,3,음,NA,NA,NULL,NA,NA,NA
oyz,2,5,memory,kr,5,4,표,NA,NA,NULL,NA,NA,NA
oyz,2,5,memory,kr,6,5,휴,NA,NA,NULL,NA,NA,NA
oyz,2,5,updating,kr,1,5,휴,까,NA,NULL,NA,NA,yes
oyz,2,5,updating,kr,2,1,뿌,았,NA,NULL,NA,NA,yes
oyz,2,5,updating,kr,3,3,음,문,NA,NULL,NA,NA,yes
oyz,2,5,retrieval,kr,1,0,르,르,"뜻,조,효,보,꾸,큼",르,TRUE,3517.5,no
oyz,2,5,retrieval,kr,2,5,휴,까,"뜻,조,효,보,꾸,큼",았,FALSE,2902.100000000093,yes
oyz,2,5,retrieval,kr,3,1,뿌,았,"뜻,조,효,보,꾸,큼",뿌,FALSE,3602,yes
oyz,2,5,retrieval,kr,4,4,표,표,"뜻,조,효,보,꾸,큼",표,TRUE,14000.800000000047,no
oyz,2,5,retrieval,kr,5,3,음,문,"뜻,조,효,보,꾸,큼",문,TRUE,16203.59999999986,yes
oyz,2,5,retrieval,kr,6,2,위,위,"뜻,조,효,보,꾸,큼",위,TRUE,3667.1999999999534,no
oyz,2,5,debrief,kr,NA,NA,NA,NA,NA,NULL,NA,NA,NA
oyz,2,6,memory,kr,1,0,뿌,NA,NA,NULL,NA,NA,NA
oyz,2,6,memory,kr,2,1,꾸,NA,NA,NULL,NA,NA,NA
oyz,2,6,memory,kr,3,2,음,NA,NA,NULL,NA,NA,NA
oyz,2,6,memory,kr,4,3,조,NA,NA,NULL,NA,NA,NA
oyz,2,6,memory,kr,5,4,휴,NA,NA,NULL,NA,NA,NA
oyz,2,6,memory,kr,6,5,표,NA,NA,NULL,NA,NA,NA
oyz,2,6,updating,kr,1,4,휴,뜻,NA,NULL,NA,NA,yes
oyz,2,6,updating,kr,2,0,뿌,보,NA,NULL,NA,NA,yes
oyz,2,6,updating,kr,3,2,음,위,NA,NULL,NA,NA,yes
oyz,2,6,retrieval,kr,1,1,꾸,꾸,"효,문,까,르,큼,았",꾸,TRUE,2863.899999999907,no
oyz,2,6,retrieval,kr,2,2,음,위,"효,문,까,르,큼,았",효,FALSE,8265.300000000047,yes
oyz,2,6,retrieval,kr,3,5,표,표,"효,문,까,르,큼,았",표,TRUE,7928.699999999953,no
oyz,2,6,retrieval,kr,4,4,휴,뜻,"효,문,까,르,큼,았",조,FALSE,9004.40000000014,yes
oyz,2,6,retrieval,kr,5,0,뿌,보,"효,문,까,르,큼,았",뿌,FALSE,6243.899999999907,yes
oyz,2,6,retrieval,kr,6,3,조,조,"효,문,까,르,큼,았",음,FALSE,7126.5,no
oyz,2,6,debrief,kr,NA,NA,NA,NA,NA,NULL,NA,NA,NA
oyz,2,7,memory,kr,1,0,휴,NA,NA,NULL,NA,NA,NA
oyz,2,7,memory,kr,2,1,았,NA,NA,NULL,NA,NA,NA
oyz,2,7,memory,kr,3,2,르,NA,NA,NULL,NA,NA,NA
oyz,2,7,memory,kr,4,3,뜻,NA,NA,NULL,NA,NA,NA
oyz,2,7,memory,kr,5,4,음,NA,NA,NULL,NA,NA,NA
oyz,2,7,memory,kr,6,5,위,NA,NA,NULL,NA,NA,NA
oyz,2,7,updating,kr,1,3,뜻,표,NA,NULL,NA,NA,yes
oyz,2,7,updating,kr,2,1,았,문,NA,NULL,NA,NA,yes
oyz,2,7,updating,kr,3,2,르,효,NA,NULL,NA,NA,yes
oyz,2,7,retrieval,kr,1,3,뜻,표,"보,큼,꾸,조,까,뿌",았,FALSE,3855.899999999907,yes
oyz,2,7,retrieval,kr,2,4,음,음,"보,큼,꾸,조,까,뿌",뜻,FALSE,4232.5,no
oyz,2,7,retrieval,kr,3,1,았,문,"보,큼,꾸,조,까,뿌",았,FALSE,4966.09999999986,yes
oyz,2,7,retrieval,kr,4,2,르,효,"보,큼,꾸,조,까,뿌",르,FALSE,5937.5,yes
oyz,2,7,retrieval,kr,5,5,위,위,"보,큼,꾸,조,까,뿌",큼,FALSE,11912.800000000047,no
oyz,2,7,retrieval,kr,6,0,휴,휴,"보,큼,꾸,조,까,뿌",휴,TRUE,2942.6999999999534,no
oyz,2,7,debrief,kr,NA,NA,NA,NA,NA,NULL,NA,NA,NA
oyz,2,8,memory,kr,1,0,뜻,NA,NA,NULL,NA,NA,NA
oyz,2,8,memory,kr,2,1,르,NA,NA,NULL,NA,NA,NA
oyz,2,8,memory,kr,3,2,효,NA,NA,NULL,NA,NA,NA
oyz,2,8,memory,kr,4,3,표,NA,NA,NULL,NA,NA,NA
oyz,2,8,memory,kr,5,4,위,NA,NA,NULL,NA,NA,NA
oyz,2,8,memory,kr,6,5,조,NA,NA,NULL,NA,NA,NA
oyz,2,8,updating,kr,1,5,조,보,NA,NULL,NA,NA,yes
oyz,2,8,updating,kr,2,4,위,뿌,NA,NULL,NA,NA,yes
oyz,2,8,updating,kr,3,1,르,문,NA,NULL,NA,NA,yes
oyz,2,8,retrieval,kr,1,3,표,표,"까,꾸,휴,았,음,큼",꾸,FALSE,4511.200000000186,no
oyz,2,8,retrieval,kr,2,4,위,뿌,"까,꾸,휴,았,음,큼",뿌,TRUE,2326.3000000000466,yes
oyz,2,8,retrieval,kr,3,0,뜻,뜻,"까,꾸,휴,았,음,큼",효,FALSE,1147.6999999999534,no
oyz,2,8,retrieval,kr,4,1,르,문,"까,꾸,휴,았,음,큼",휴,FALSE,7188.5,yes
oyz,2,8,retrieval,kr,5,2,효,효,"까,꾸,휴,았,음,큼",조,FALSE,1914,no
oyz,2,8,retrieval,kr,6,5,조,보,"까,꾸,휴,았,음,큼",뿌,FALSE,3028,yes
oyz,2,8,debrief,kr,NA,NA,NA,NA,NA,NULL,NA,NA,NA
oyz,3,1,memory,kr,1,0,보,NA,NA,NULL,NA,NA,NA
oyz,3,1,memory,kr,2,1,았,NA,NA,NULL,NA,NA,NA
oyz,3,1,memory,kr,3,2,표,NA,NA,NULL,NA,NA,NA
oyz,3,1,memory,kr,4,3,문,NA,NA,NULL,NA,NA,NA
oyz,3,1,memory,kr,5,4,뿌,NA,NA,NULL,NA,NA,NA
oyz,3,1,memory,kr,6,5,뜻,NA,NA,NULL,NA,NA,NA
oyz,3,1,updating,kr,1,1,았,위,NA,NULL,NA,NA,yes
oyz,3,1,updating,kr,2,4,뿌,조,NA,NULL,NA,NA,yes
oyz,3,1,updating,kr,3,3,문,휴,NA,NULL,NA,NA,yes
oyz,3,1,retrieval,kr,1,3,문,휴,"음,꾸,르,효,큼,까",휴,TRUE,3445.3000000000466,yes
oyz,3,1,retrieval,kr,2,5,뜻,뜻,"음,꾸,르,효,큼,까",까,FALSE,1483.3000000000466,no
oyz,3,1,retrieval,kr,3,0,보,보,"음,꾸,르,효,큼,까",효,FALSE,1071.6999999999534,no
oyz,3,1,retrieval,kr,4,2,표,표,"음,꾸,르,효,큼,까",문,FALSE,1077.3999999999069,no
oyz,3,1,retrieval,kr,5,1,았,위,"음,꾸,르,효,큼,까",위,TRUE,2037.3000000000466,yes
oyz,3,1,retrieval,kr,6,4,뿌,조,"음,꾸,르,효,큼,까",조,TRUE,2410,yes
oyz,3,1,debrief,kr,NA,NA,NA,NA,NA,NULL,NA,NA,NA
oyz,3,2,memory,kr,1,0,위,NA,NA,NULL,NA,NA,NA
oyz,3,2,memory,kr,2,1,꾸,NA,NA,NULL,NA,NA,NA
oyz,3,2,memory,kr,3,2,르,NA,NA,NULL,NA,NA,NA
oyz,3,2,memory,kr,4,3,문,NA,NA,NULL,NA,NA,NA
oyz,3,2,memory,kr,5,4,조,NA,NA,NULL,NA,NA,NA
oyz,3,2,memory,kr,6,5,휴,NA,NA,NULL,NA,NA,NA
oyz,3,2,updating,kr,1,3,문,뿌,NA,NULL,NA,NA,yes
oyz,3,2,updating,kr,2,4,조,효,NA,NULL,NA,NA,yes
oyz,3,2,updating,kr,3,2,르,큼,NA,NULL,NA,NA,yes
oyz,3,2,retrieval,kr,1,3,문,뿌,"뜻,표,보,았,음,까",뿌,TRUE,1981.8999999999069,yes
oyz,3,2,retrieval,kr,2,0,위,위,"뜻,표,보,았,음,까",위,TRUE,4468.600000000093,no
oyz,3,2,retrieval,kr,3,5,휴,휴,"뜻,표,보,았,음,까",꾸,FALSE,1695.3000000000466,no
oyz,3,2,retrieval,kr,4,1,꾸,꾸,"뜻,표,보,았,음,까",까,FALSE,1243.5999999998603,no
oyz,3,2,retrieval,kr,5,4,조,효,"뜻,표,보,았,음,까",효,TRUE,2954.0999999998603,yes
oyz,3,2,retrieval,kr,6,2,르,큼,"뜻,표,보,았,음,까",큼,TRUE,2847.9000000001397,yes
oyz,3,2,debrief,kr,NA,NA,NA,NA,NA,NULL,NA,NA,NA
oyz,3,3,memory,kr,1,0,르,NA,NA,NULL,NA,NA,NA
oyz,3,3,memory,kr,2,1,큼,NA,NA,NULL,NA,NA,NA
oyz,3,3,memory,kr,3,2,문,NA,NA,NULL,NA,NA,NA
oyz,3,3,memory,kr,4,3,위,NA,NA,NULL,NA,NA,NA
oyz,3,3,memory,kr,5,4,까,NA,NA,NULL,NA,NA,NA
oyz,3,3,memory,kr,6,5,효,NA,NA,NULL,NA,NA,NA
oyz,3,3,updating,kr,1,0,르,휴,NA,NULL,NA,NA,yes
oyz,3,3,updating,kr,2,1,큼,보,NA,NULL,NA,NA,yes
oyz,3,3,updating,kr,3,4,까,았,NA,NULL,NA,NA,yes
oyz,3,3,retrieval,kr,1,1,큼,보,"음,표,꾸,뜻,조,뿌",보,TRUE,4124.800000000047,yes
oyz,3,3,retrieval,kr,2,2,문,문,"음,표,꾸,뜻,조,뿌",꾸,FALSE,2111.899999999907,no
oyz,3,3,retrieval,kr,3,4,까,았,"음,표,꾸,뜻,조,뿌",았,TRUE,3824.2000000001863,yes
oyz,3,3,retrieval,kr,4,5,효,효,"음,표,꾸,뜻,조,뿌",뜻,FALSE,1815,no
oyz,3,3,retrieval,kr,5,0,르,휴,"음,표,꾸,뜻,조,뿌",휴,TRUE,2805.9000000001397,yes
oyz,3,3,retrieval,kr,6,3,위,위,"음,표,꾸,뜻,조,뿌",조,FALSE,1119.5,no
oyz,3,3,debrief,kr,NA,NA,NA,NA,NA,NULL,NA,NA,NA
oyz,3,4,memory,kr,1,0,보,NA,NA,NULL,NA,NA,NA
oyz,3,4,memory,kr,2,1,효,NA,NA,NULL,NA,NA,NA
oyz,3,4,memory,kr,3,2,휴,NA,NA,NULL,NA,NA,NA
oyz,3,4,memory,kr,4,3,위,NA,NA,NULL,NA,NA,NA
oyz,3,4,memory,kr,5,4,문,NA,NA,NULL,NA,NA,NA
oyz,3,4,memory,kr,6,5,큼,NA,NA,NULL,NA,NA,NA
oyz,3,4,updating,kr,1,3,위,르,NA,NULL,NA,NA,yes
oyz,3,4,updating,kr,2,4,문,뿌,NA,NULL,NA,NA,yes
oyz,3,4,updating,kr,3,5,큼,까,NA,NULL,NA,NA,yes
oyz,3,4,retrieval,kr,1,4,문,뿌,"표,꾸,뜻,조,음,았",뿌,TRUE,1925.3000000000466,yes
oyz,3,4,retrieval,kr,2,2,휴,휴,"표,꾸,뜻,조,음,았",효,FALSE,1277.4000000001397,no
oyz,3,4,retrieval,kr,3,3,위,르,"표,꾸,뜻,조,음,았",르,TRUE,8452.799999999814,yes
oyz,3,4,retrieval,kr,4,5,큼,까,"표,꾸,뜻,조,음,았",까,TRUE,1341.7000000001863,yes
oyz,3,4,retrieval,kr,5,0,보,보,"표,꾸,뜻,조,음,았",보,TRUE,3206.100000000093,no
oyz,3,4,retrieval,kr,6,1,효,효,"표,꾸,뜻,조,음,았",뿌,FALSE,4639.699999999721,no
oyz,3,4,debrief,kr,NA,NA,NA,NA,NA,NULL,NA,NA,NA
oyz,3,5,memory,kr,1,0,보,NA,NA,NULL,NA,NA,NA
oyz,3,5,memory,kr,2,1,뜻,NA,NA,NULL,NA,NA,NA
oyz,3,5,memory,kr,3,2,큼,NA,NA,NULL,NA,NA,NA
oyz,3,5,memory,kr,4,3,조,NA,NA,NULL,NA,NA,NA
oyz,3,5,memory,kr,5,4,꾸,NA,NA,NULL,NA,NA,NA
oyz,3,5,memory,kr,6,5,까,NA,NA,NULL,NA,NA,NA
oyz,3,5,updating,kr,1,3,조,뿌,NA,NULL,NA,NA,yes
oyz,3,5,updating,kr,2,1,뜻,르,NA,NULL,NA,NA,yes
oyz,3,5,updating,kr,3,4,꾸,문,NA,NULL,NA,NA,yes
oyz,3,5,retrieval,kr,1,4,꾸,문,"휴,위,효,음,았,표",문,TRUE,7208.600000000093,yes
oyz,3,5,retrieval,kr,2,2,큼,큼,"휴,위,효,음,았,표",뿌,FALSE,1336,no
oyz,3,5,retrieval,kr,3,1,뜻,르,"휴,위,효,음,았,표",르,TRUE,2765,yes
oyz,3,5,retrieval,kr,4,0,보,보,"휴,위,효,음,았,표",보,TRUE,3335.7000000001863,no
oyz,3,5,retrieval,kr,5,3,조,뿌,"휴,위,효,음,았,표",뿌,TRUE,3125.7999999998137,yes
oyz,3,5,retrieval,kr,6,5,까,까,"휴,위,효,음,았,표",꾸,FALSE,1429.5,no
oyz,3,5,debrief,kr,NA,NA,NA,NA,NA,NULL,NA,NA,NA
oyz,3,6,memory,kr,1,0,뿌,NA,NA,NULL,NA,NA,NA
oyz,3,6,memory,kr,2,1,르,NA,NA,NULL,NA,NA,NA
oyz,3,6,memory,kr,3,2,뜻,NA,NA,NULL,NA,NA,NA
oyz,3,6,memory,kr,4,3,음,NA,NA,NULL,NA,NA,NA
oyz,3,6,memory,kr,5,4,표,NA,NA,NULL,NA,NA,NA
oyz,3,6,memory,kr,6,5,았,NA,NA,NULL,NA,NA,NA
oyz,3,6,updating,kr,1,0,뿌,보,NA,NULL,NA,NA,yes
oyz,3,6,updating,kr,2,5,았,문,NA,NULL,NA,NA,yes
oyz,3,6,updating,kr,3,4,표,큼,NA,NULL,NA,NA,yes
oyz,3,6,retrieval,kr,1,4,표,큼,"휴,효,조,꾸,위,까",큼,TRUE,2940.7999999998137,yes
oyz,3,6,retrieval,kr,2,0,뿌,보,"휴,효,조,꾸,위,까",보,TRUE,2748.600000000093,yes
oyz,3,6,retrieval,kr,3,1,르,르,"휴,효,조,꾸,위,까",르,TRUE,2588.6999999997206,no
oyz,3,6,retrieval,kr,4,2,뜻,뜻,"휴,효,조,꾸,위,까",효,FALSE,1015.6000000000931,no
oyz,3,6,retrieval,kr,5,3,음,음,"휴,효,조,꾸,위,까",꾸,FALSE,731.3999999999069,no
oyz,3,6,retrieval,kr,6,5,았,문,"휴,효,조,꾸,위,까",문,TRUE,5879.799999999814,yes
oyz,3,6,debrief,kr,NA,NA,NA,NA,NA,NULL,NA,NA,NA
oyz,3,7,memory,kr,1,0,문,NA,NA,NULL,NA,NA,NA
oyz,3,7,memory,kr,2,1,르,NA,NA,NULL,NA,NA,NA
oyz,3,7,memory,kr,3,2,뜻,NA,NA,NULL,NA,NA,NA
oyz,3,7,memory,kr,4,3,휴,NA,NA,NULL,NA,NA,NA
oyz,3,7,memory,kr,5,4,뿌,NA,NA,NULL,NA,NA,NA
oyz,3,7,memory,kr,6,5,효,NA,NA,NULL,NA,NA,NA
oyz,3,7,updating,kr,1,4,뿌,꾸,NA,NULL,NA,NA,yes
oyz,3,7,updating,kr,2,0,문,았,NA,NULL,NA,NA,yes
oyz,3,7,updating,kr,3,2,뜻,음,NA,NULL,NA,NA,yes
oyz,3,7,retrieval,kr,1,1,르,르,"위,큼,조,까,보,표",르,TRUE,2404.5,no
oyz,3,7,retrieval,kr,2,3,휴,휴,"위,큼,조,까,보,표",휴,TRUE,10219.600000000093,no
oyz,3,7,retrieval,kr,3,0,문,았,"위,큼,조,까,보,표",았,TRUE,6396.5,yes
oyz,3,7,retrieval,kr,4,2,뜻,음,"위,큼,조,까,보,표",음,TRUE,2999.899999999907,yes
oyz,3,7,retrieval,kr,5,5,효,효,"위,큼,조,까,보,표",꾸,FALSE,1563.8000000002794,no
oyz,3,7,retrieval,kr,6,4,뿌,꾸,"위,큼,조,까,보,표",보,FALSE,7618.399999999907,yes
oyz,3,7,debrief,kr,NA,NA,NA,NA,NA,NULL,NA,NA,NA
oyz,3,8,memory,kr,1,0,음,NA,NA,NULL,NA,NA,NA
oyz,3,8,memory,kr,2,1,꾸,NA,NA,NULL,NA,NA,NA
oyz,3,8,memory,kr,3,2,까,NA,NA,NULL,NA,NA,NA
oyz,3,8,memory,kr,4,3,효,NA,NA,NULL,NA,NA,NA
oyz,3,8,memory,kr,5,4,뿌,NA,NA,NULL,NA,NA,NA
oyz,3,8,memory,kr,6,5,문,NA,NA,NULL,NA,NA,NA
oyz,3,8,updating,kr,1,0,음,보,NA,NULL,NA,NA,yes
oyz,3,8,updating,kr,2,4,뿌,았,NA,NULL,NA,NA,yes
oyz,3,8,updating,kr,3,2,까,휴,NA,NULL,NA,NA,yes
oyz,3,8,retrieval,kr,1,1,꾸,꾸,"위,표,르,뜻,조,큼",까,FALSE,4599.100000000093,no
oyz,3,8,retrieval,kr,2,0,음,보,"위,표,르,뜻,조,큼",았,FALSE,8200.899999999907,yes
oyz,3,8,retrieval,kr,3,2,까,휴,"위,표,르,뜻,조,큼",휴,TRUE,1896,yes
oyz,3,8,retrieval,kr,4,3,효,효,"위,표,르,뜻,조,큼",뜻,FALSE,2791.8000000002794,no
oyz,3,8,retrieval,kr,5,5,문,문,"위,표,르,뜻,조,큼",꾸,FALSE,1719.7999999998137,no
oyz,3,8,retrieval,kr,6,4,뿌,았,"위,표,르,뜻,조,큼",보,FALSE,2907.4000000003725,yes
oyz,3,8,debrief,kr,NA,NA,NA,NA,NA,NULL,NA,NA,NA
oyz,4,1,memory,kr,1,0,르,NA,NA,NULL,NA,NA,NA
oyz,4,1,memory,kr,2,1,효,NA,NA,NULL,NA,NA,NA
oyz,4,1,memory,kr,3,2,뿌,NA,NA,NULL,NA,NA,NA
oyz,4,1,memory,kr,4,3,큼,NA,NA,NULL,NA,NA,NA
oyz,4,1,memory,kr,5,4,표,NA,NA,NULL,NA,NA,NA
oyz,4,1,memory,kr,6,5,음,NA,NA,NULL,NA,NA,NA
oyz,4,1,updating,kr,1,1,효,조,NA,NULL,NA,NA,yes
oyz,4,1,updating,kr,2,5,음,았,NA,NULL,NA,NA,yes
oyz,4,1,updating,kr,3,4,표,위,NA,NULL,NA,NA,yes
oyz,4,1,retrieval,kr,1,4,표,위,"뜻,보,문,까,꾸,휴",위,TRUE,2511.1999999997206,yes
oyz,4,1,retrieval,kr,2,2,뿌,뿌,"뜻,보,문,까,꾸,휴",효,FALSE,1222.0999999996275,no
oyz,4,1,retrieval,kr,3,1,효,조,"뜻,보,문,까,꾸,휴",조,TRUE,1519.8999999999069,yes
oyz,4,1,retrieval,kr,4,0,르,르,"뜻,보,문,까,꾸,휴",르,TRUE,2141.899999999907,no
oyz,4,1,retrieval,kr,5,5,음,았,"뜻,보,문,까,꾸,휴",았,TRUE,13487.200000000186,yes
oyz,4,1,retrieval,kr,6,3,큼,큼,"뜻,보,문,까,꾸,휴",조,FALSE,1314.6000000000931,no
oyz,4,1,debrief,kr,NA,NA,NA,NA,NA,NULL,NA,NA,NA
oyz,4,2,memory,kr,1,0,보,NA,NA,NULL,NA,NA,NA
oyz,4,2,memory,kr,2,1,음,NA,NA,NULL,NA,NA,NA
oyz,4,2,memory,kr,3,2,조,NA,NA,NULL,NA,NA,NA
oyz,4,2,memory,kr,4,3,았,NA,NA,NULL,NA,NA,NA
oyz,4,2,memory,kr,5,4,뿌,NA,NA,NULL,NA,NA,NA
oyz,4,2,memory,kr,6,5,문,NA,NA,NULL,NA,NA,NA
oyz,4,2,updating,kr,1,3,았,휴,NA,NULL,NA,NA,yes
oyz,4,2,updating,kr,2,0,보,꾸,NA,NULL,NA,NA,yes
oyz,4,2,updating,kr,3,2,조,뜻,NA,NULL,NA,NA,yes
oyz,4,2,retrieval,kr,1,5,문,문,"르,위,표,까,효,큼",문,TRUE,11086.400000000373,no
oyz,4,2,retrieval,kr,2,4,뿌,뿌,"르,위,표,까,효,큼",뜻,FALSE,1944.7999999998137,no
oyz,4,2,retrieval,kr,3,2,조,뜻,"르,위,표,까,효,큼",뜻,TRUE,3910.100000000093,yes
oyz,4,2,retrieval,kr,4,0,보,꾸,"르,위,표,까,효,큼",꾸,TRUE,3380,yes
oyz,4,2,retrieval,kr,5,3,았,휴,"르,위,표,까,효,큼",휴,TRUE,1545.8999999999069,yes
oyz,4,2,retrieval,kr,6,1,음,음,"르,위,표,까,효,큼",까,FALSE,1679.2999999998137,no
oyz,4,2,debrief,kr,NA,NA,NA,NA,NA,NULL,NA,NA,NA
oyz,4,3,memory,kr,1,0,음,NA,NA,NULL,NA,NA,NA
oyz,4,3,memory,kr,2,1,위,NA,NA,NULL,NA,NA,NA
oyz,4,3,memory,kr,3,2,꾸,NA,NA,NULL,NA,NA,NA
oyz,4,3,memory,kr,4,3,르,NA,NA,NULL,NA,NA,NA
oyz,4,3,memory,kr,5,4,보,NA,NA,NULL,NA,NA,NA
oyz,4,3,memory,kr,6,5,표,NA,NA,NULL,NA,NA,NA
oyz,4,3,updating,kr,1,2,꾸,았,NA,NULL,NA,NA,yes
oyz,4,3,updating,kr,2,0,음,까,NA,NULL,NA,NA,yes
oyz,4,3,updating,kr,3,1,위,효,NA,NULL,NA,NA,yes
oyz,4,3,retrieval,kr,1,4,보,보,"큼,뿌,뜻,조,문,휴",았,FALSE,1652.4000000003725,no
oyz,4,3,retrieval,kr,2,5,표,표,"큼,뿌,뜻,조,문,휴",표,TRUE,4606.200000000186,no
oyz,4,3,retrieval,kr,3,2,꾸,았,"큼,뿌,뜻,조,문,휴",았,TRUE,4080.399999999907,yes
oyz,4,3,retrieval,kr,4,1,위,효,"큼,뿌,뜻,조,문,휴",효,TRUE,2057.7000000001863,yes
oyz,4,3,retrieval,kr,5,3,르,르,"큼,뿌,뜻,조,문,휴",르,TRUE,2872.100000000093,no
oyz,4,3,retrieval,kr,6,0,음,까,"큼,뿌,뜻,조,문,휴",까,TRUE,3987.2000000001863,yes
oyz,4,3,debrief,kr,NA,NA,NA,NA,NA,NULL,NA,NA,NA
oyz,4,4,memory,kr,1,0,꾸,NA,NA,NULL,NA,NA,NA
oyz,4,4,memory,kr,2,1,휴,NA,NA,NULL,NA,NA,NA
oyz,4,4,memory,kr,3,2,문,NA,NA,NULL,NA,NA,NA
oyz,4,4,memory,kr,4,3,큼,NA,NA,NULL,NA,NA,NA
oyz,4,4,memory,kr,5,4,뜻,NA,NA,NULL,NA,NA,NA
oyz,4,4,memory,kr,6,5,위,NA,NA,NULL,NA,NA,NA
oyz,4,4,updating,kr,1,0,꾸,까,NA,NULL,NA,NA,yes
oyz,4,4,updating,kr,2,3,큼,았,NA,NULL,NA,NA,yes
oyz,4,4,updating,kr,3,5,위,보,NA,NULL,NA,NA,yes
oyz,4,4,retrieval,kr,1,4,뜻,뜻,"르,효,표,음,뿌,조",까,FALSE,1515.7000000001863,no
oyz,4,4,retrieval,kr,2,1,휴,휴,"르,효,표,음,뿌,조",효,FALSE,938.4000000003725,no
oyz,4,4,retrieval,kr,3,0,꾸,까,"르,효,표,음,뿌,조",까,TRUE,3540.2000000001863,yes
oyz,4,4,retrieval,kr,4,2,문,문,"르,효,표,음,뿌,조",았,FALSE,6975.899999999907,no
oyz,4,4,retrieval,kr,5,5,위,보,"르,효,표,음,뿌,조",보,TRUE,3225,yes
oyz,4,4,retrieval,kr,6,3,큼,았,"르,효,표,음,뿌,조",았,TRUE,1325.2000000001863,yes
oyz,4,4,debrief,kr,NA,NA,NA,NA,NA,NULL,NA,NA,NA
oyz,4,5,memory,kr,1,0,조,NA,NA,NULL,NA,NA,NA
oyz,4,5,memory,kr,2,1,았,NA,NA,NULL,NA,NA,NA
oyz,4,5,memory,kr,3,2,효,NA,NA,NULL,NA,NA,NA
oyz,4,5,memory,kr,4,3,휴,NA,NA,NULL,NA,NA,NA
oyz,4,5,memory,kr,5,4,뿌,NA,NA,NULL,NA,NA,NA
oyz,4,5,memory,kr,6,5,까,NA,NA,NULL,NA,NA,NA
oyz,4,5,updating,kr,1,1,았,뜻,NA,NULL,NA,NA,yes
oyz,4,5,updating,kr,2,3,휴,보,NA,NULL,NA,NA,yes
oyz,4,5,updating,kr,3,5,까,표,NA,NULL,NA,NA,yes
oyz,4,5,retrieval,kr,1,2,효,효,"꾸,큼,문,음,위,르",까,FALSE,1446.7000000001863,no
oyz,4,5,retrieval,kr,2,5,까,표,"꾸,큼,문,음,위,르",표,TRUE,4618.299999999814,yes
oyz,4,5,retrieval,kr,3,3,휴,보,"꾸,큼,문,음,위,르",보,TRUE,4096.100000000093,yes
oyz,4,5,retrieval,kr,4,4,뿌,뿌,"꾸,큼,문,음,위,르",뿌,TRUE,2259.5999999996275,no
oyz,4,5,retrieval,kr,5,0,조,조,"꾸,큼,문,음,위,르",았,FALSE,3516.0999999996275,no
oyz,4,5,retrieval,kr,6,1,았,뜻,"꾸,큼,문,음,위,르",뜻,TRUE,4740.199999999721,yes
oyz,4,5,debrief,kr,NA,NA,NA,NA,NA,NULL,NA,NA,NA
oyz,4,6,memory,kr,1,0,뿌,NA,NA,NULL,NA,NA,NA
oyz,4,6,memory,kr,2,1,문,NA,NA,NULL,NA,NA,NA
oyz,4,6,memory,kr,3,2,조,NA,NA,NULL,NA,NA,NA
oyz,4,6,memory,kr,4,3,르,NA,NA,NULL,NA,NA,NA
oyz,4,6,memory,kr,5,4,꾸,NA,NA,NULL,NA,NA,NA
oyz,4,6,memory,kr,6,5,효,NA,NA,NULL,NA,NA,NA
oyz,4,6,updating,kr,1,3,르,표,NA,NULL,NA,NA,yes
oyz,4,6,updating,kr,2,2,조,위,NA,NULL,NA,NA,yes
oyz,4,6,updating,kr,3,5,효,휴,NA,NULL,NA,NA,yes
oyz,4,6,retrieval,kr,1,2,조,위,"보,큼,까,음,았,뜻",위,TRUE,2636.7000000001863,yes
oyz,4,6,retrieval,kr,2,1,문,문,"보,큼,까,음,았,뜻",았,FALSE,1447.6000000000931,no
oyz,4,6,retrieval,kr,3,3,르,표,"보,큼,까,음,았,뜻",표,TRUE,4564.200000000186,yes
oyz,4,6,retrieval,kr,4,0,뿌,뿌,"보,큼,까,음,았,뜻",뿌,TRUE,2529.899999999907,no
oyz,4,6,retrieval,kr,5,4,꾸,꾸,"보,큼,까,음,았,뜻",르,FALSE,1711.6999999997206,no
oyz,4,6,retrieval,kr,6,5,효,휴,"보,큼,까,음,았,뜻",까,FALSE,13409.19999999972,yes
oyz,4,6,debrief,kr,NA,NA,NA,NA,NA,NULL,NA,NA,NA
oyz,4,7,memory,kr,1,0,큼,NA,NA,NULL,NA,NA,NA
oyz,4,7,memory,kr,2,1,보,NA,NA,NULL,NA,NA,NA
oyz,4,7,memory,kr,3,2,까,NA,NA,NULL,NA,NA,NA
oyz,4,7,memory,kr,4,3,위,NA,NA,NULL,NA,NA,NA
oyz,4,7,memory,kr,5,4,르,NA,NA,NULL,NA,NA,NA
oyz,4,7,memory,kr,6,5,조,NA,NA,NULL,NA,NA,NA
oyz,4,7,updating,kr,1,1,보,뿌,NA,NULL,NA,NA,yes
oyz,4,7,updating,kr,2,4,르,휴,NA,NULL,NA,NA,yes
oyz,4,7,updating,kr,3,0,큼,문,NA,NULL,NA,NA,yes
oyz,4,7,retrieval,kr,1,5,조,조,"표,음,꾸,뜻,았,효",꾸,FALSE,1581.3999999999069,no
oyz,4,7,retrieval,kr,2,2,까,까,"표,음,꾸,뜻,았,효",효,FALSE,900.6999999997206,no
oyz,4,7,retrieval,kr,3,0,큼,문,"표,음,꾸,뜻,았,효",문,TRUE,3663.7000000001863,yes
oyz,4,7,retrieval,kr,4,3,위,위,"표,음,꾸,뜻,았,효",조,FALSE,1461.8000000002794,no
oyz,4,7,retrieval,kr,5,4,르,휴,"표,음,꾸,뜻,았,효",휴,TRUE,1548.1000000000931,yes
oyz,4,7,retrieval,kr,6,1,보,뿌,"표,음,꾸,뜻,았,효",뿌,TRUE,1291.5999999996275,yes
oyz,4,7,debrief,kr,NA,NA,NA,NA,NA,NULL,NA,NA,NA
oyz,4,8,memory,kr,1,0,르,NA,NA,NULL,NA,NA,NA
oyz,4,8,memory,kr,2,1,문,NA,NA,NULL,NA,NA,NA
oyz,4,8,memory,kr,3,2,음,NA,NA,NULL,NA,NA,NA
oyz,4,8,memory,kr,4,3,조,NA,NA,NULL,NA,NA,NA
oyz,4,8,memory,kr,5,4,휴,NA,NA,NULL,NA,NA,NA
oyz,4,8,memory,kr,6,5,뿌,NA,NA,NULL,NA,NA,NA
oyz,4,8,updating,kr,1,3,조,뜻,NA,NULL,NA,NA,yes
oyz,4,8,updating,kr,2,1,문,까,NA,NULL,NA,NA,yes
oyz,4,8,updating,kr,3,5,뿌,위,NA,NULL,NA,NA,yes
oyz,4,8,retrieval,kr,1,5,뿌,위,"표,효,큼,꾸,보,았",위,TRUE,3242.899999999907,yes
oyz,4,8,retrieval,kr,2,0,르,르,"표,효,큼,꾸,보,았",르,TRUE,5140.100000000093,no
oyz,4,8,retrieval,kr,3,4,휴,휴,"표,효,큼,꾸,보,았",았,FALSE,1817.7000000001863,no
oyz,4,8,retrieval,kr,4,3,조,뜻,"표,효,큼,꾸,보,았",뜻,TRUE,5673.5999999996275,yes
oyz,4,8,retrieval,kr,5,2,음,음,"표,효,큼,꾸,보,았",았,FALSE,1536.1000000000931,no
oyz,4,8,retrieval,kr,6,1,문,까,"표,효,큼,꾸,보,았",까,TRUE,2645.399999999907,yes
oyz,4,8,debrief,kr,NA,NA,NA,NA,NA,NULL,NA,NA,NA
oyz,5,1,memory,kr,1,0,음,NA,NA,NULL,NA,NA,NA
oyz,5,1,memory,kr,2,1,까,NA,NA,NULL,NA,NA,NA
oyz,5,1,memory,kr,3,2,보,NA,NA,NULL,NA,NA,NA
oyz,5,1,memory,kr,4,3,휴,NA,NA,NULL,NA,NA,NA
oyz,5,1,memory,kr,5,4,조,NA,NA,NULL,NA,NA,NA
oyz,5,1,memory,kr,6,5,표,NA,NA,NULL,NA,NA,NA
oyz,5,1,updating,kr,1,1,까,효,NA,NULL,NA,NA,yes
oyz,5,1,updating,kr,2,5,표,위,NA,NULL,NA,NA,yes
oyz,5,1,updating,kr,3,2,보,았,NA,NULL,NA,NA,yes
oyz,5,1,retrieval,kr,1,4,조,조,"뿌,큼,꾸,문,뜻,르",효,FALSE,1262,no
oyz,5,1,retrieval,kr,2,1,까,효,"뿌,큼,꾸,문,뜻,르",효,TRUE,6207.199999999721,yes
oyz,5,1,retrieval,kr,3,3,휴,휴,"뿌,큼,꾸,문,뜻,르",았,FALSE,913.5,no
oyz,5,1,retrieval,kr,4,2,보,았,"뿌,큼,꾸,문,뜻,르",았,TRUE,1949.8999999999069,yes
oyz,5,1,retrieval,kr,5,5,표,위,"뿌,큼,꾸,문,뜻,르",위,TRUE,1871.9000000003725,yes
oyz,5,1,retrieval,kr,6,0,음,음,"뿌,큼,꾸,문,뜻,르",음,TRUE,2405.6999999997206,no
oyz,5,1,debrief,kr,NA,NA,NA,NA,NA,NULL,NA,NA,NA
oyz,5,2,memory,kr,1,0,까,NA,NA,NULL,NA,NA,NA
oyz,5,2,memory,kr,2,1,음,NA,NA,NULL,NA,NA,NA
oyz,5,2,memory,kr,3,2,효,NA,NA,NULL,NA,NA,NA
oyz,5,2,memory,kr,4,3,휴,NA,NA,NULL,NA,NA,NA
oyz,5,2,memory,kr,5,4,뿌,NA,NA,NULL,NA,NA,NA
oyz,5,2,memory,kr,6,5,표,NA,NA,NULL,NA,NA,NA
oyz,5,2,updating,kr,1,1,음,보,NA,NULL,NA,NA,yes
oyz,5,2,updating,kr,2,4,뿌,조,NA,NULL,NA,NA,yes
oyz,5,2,updating,kr,3,3,휴,꾸,NA,NULL,NA,NA,yes
oyz,5,2,retrieval,kr,1,2,효,효,"문,았,르,큼,위,뜻",까,FALSE,1452.6000000000931,no
oyz,5,2,retrieval,kr,2,1,음,보,"문,았,르,큼,위,뜻",보,TRUE,4718.199999999721,yes
oyz,5,2,retrieval,kr,3,0,까,까,"문,았,르,큼,위,뜻",까,TRUE,1357.6999999997206,no
oyz,5,2,retrieval,kr,4,5,표,표,"문,았,르,큼,위,뜻",표,TRUE,2597.3000000002794,no
oyz,5,2,retrieval,kr,5,3,휴,꾸,"문,았,르,큼,위,뜻",꾸,TRUE,2614,yes
oyz,5,2,retrieval,kr,6,4,뿌,조,"문,았,르,큼,위,뜻",조,TRUE,1787.3999999999069,yes
oyz,5,2,debrief,kr,NA,NA,NA,NA,NA,NULL,NA,NA,NA
oyz,5,3,memory,kr,1,0,큼,NA,NA,NULL,NA,NA,NA
oyz,5,3,memory,kr,2,1,보,NA,NA,NULL,NA,NA,NA
oyz,5,3,memory,kr,3,2,표,NA,NA,NULL,NA,NA,NA
oyz,5,3,memory,kr,4,3,뜻,NA,NA,NULL,NA,NA,NA
oyz,5,3,memory,kr,5,4,뿌,NA,NA,NULL,NA,NA,NA
oyz,5,3,memory,kr,6,5,았,NA,NA,NULL,NA,NA,NA
oyz,5,3,updating,kr,1,4,뿌,위,NA,NULL,NA,NA,yes
oyz,5,3,updating,kr,2,0,큼,문,NA,NULL,NA,NA,yes
oyz,5,3,updating,kr,3,5,았,까,NA,NULL,NA,NA,yes
oyz,5,3,retrieval,kr,1,5,았,까,"음,효,휴,르,조,꾸",까,TRUE,2217.5999999996275,yes
oyz,5,3,retrieval,kr,2,2,표,표,"음,효,휴,르,조,꾸",효,FALSE,1011.8999999999069,no
oyz,5,3,retrieval,kr,3,4,뿌,위,"음,효,휴,르,조,꾸",위,TRUE,1711.3999999999069,yes
oyz,5,3,retrieval,kr,4,1,보,보,"음,효,휴,르,조,꾸",문,FALSE,1051.1000000000931,no
oyz,5,3,retrieval,kr,5,0,큼,문,"음,효,휴,르,조,꾸",문,TRUE,6681.800000000279,yes
oyz,5,3,retrieval,kr,6,3,뜻,뜻,"음,효,휴,르,조,꾸",조,FALSE,1103.5999999996275,no
oyz,5,3,debrief,kr,NA,NA,NA,NA,NA,NULL,NA,NA,NA
oyz,5,4,memory,kr,1,0,음,NA,NA,NULL,NA,NA,NA
oyz,5,4,memory,kr,2,1,효,NA,NA,NULL,NA,NA,NA
oyz,5,4,memory,kr,3,2,뿌,NA,NA,NULL,NA,NA,NA
oyz,5,4,memory,kr,4,3,꾸,NA,NA,NULL,NA,NA,NA
oyz,5,4,memory,kr,5,4,큼,NA,NA,NULL,NA,NA,NA
oyz,5,4,memory,kr,6,5,표,NA,NA,NULL,NA,NA,NA
oyz,5,4,updating,kr,1,1,효,르,NA,NULL,NA,NA,yes
oyz,5,4,updating,kr,2,0,음,까,NA,NULL,NA,NA,yes
oyz,5,4,updating,kr,3,5,표,조,NA,NULL,NA,NA,yes
oyz,5,4,retrieval,kr,1,0,음,까,"위,보,휴,뜻,았,문",까,TRUE,2188.399999999907,yes
oyz,5,4,retrieval,kr,2,2,뿌,뿌,"위,보,휴,뜻,았,문",효,FALSE,1189.8999999999069,no
oyz,5,4,retrieval,kr,3,4,큼,큼,"위,보,휴,뜻,았,문",큼,TRUE,2311.899999999907,no
oyz,5,4,retrieval,kr,4,1,효,르,"위,보,휴,뜻,았,문",르,TRUE,7624.700000000186,yes
oyz,5,4,retrieval,kr,5,5,표,조,"위,보,휴,뜻,았,문",조,TRUE,1757.3999999999069,yes
oyz,5,4,retrieval,kr,6,3,꾸,꾸,"위,보,휴,뜻,았,문",큼,FALSE,1047.2000000001863,no
oyz,5,4,debrief,kr,NA,NA,NA,NA,NA,NULL,NA,NA,NA
oyz,5,5,memory,kr,1,0,음,NA,NA,NULL,NA,NA,NA
oyz,5,5,memory,kr,2,1,르,NA,NA,NULL,NA,NA,NA
oyz,5,5,memory,kr,3,2,표,NA,NA,NULL,NA,NA,NA
oyz,5,5,memory,kr,4,3,위,NA,NA,NULL,NA,NA,NA
oyz,5,5,memory,kr,5,4,조,NA,NA,NULL,NA,NA,NA
oyz,5,5,memory,kr,6,5,효,NA,NA,NULL,NA,NA,NA
oyz,5,5,updating,kr,1,0,음,휴,NA,NULL,NA,NA,yes
oyz,5,5,updating,kr,2,1,르,꾸,NA,NULL,NA,NA,yes
oyz,5,5,updating,kr,3,5,효,뜻,NA,NULL,NA,NA,yes
oyz,5,5,retrieval,kr,1,1,르,꾸,"까,뿌,큼,았,문,보",꾸,TRUE,2635.2000000001863,yes
oyz,5,5,retrieval,kr,2,2,표,표,"까,뿌,큼,았,문,보",표,TRUE,3076.899999999907,no
oyz,5,5,retrieval,kr,3,3,위,위,"까,뿌,큼,았,문,보",위,TRUE,2601.7999999998137,no
oyz,5,5,retrieval,kr,4,5,효,뜻,"까,뿌,큼,았,문,보",뜻,TRUE,4311.5999999996275,yes
oyz,5,5,retrieval,kr,5,0,음,휴,"까,뿌,큼,았,문,보",휴,TRUE,6296,yes
oyz,5,5,retrieval,kr,6,4,조,조,"까,뿌,큼,았,문,보",뜻,FALSE,4617.600000000093,no
oyz,5,5,debrief,kr,NA,NA,NA,NA,NA,NULL,NA,NA,NA
oyz,5,6,memory,kr,1,0,문,NA,NA,NULL,NA,NA,NA
oyz,5,6,memory,kr,2,1,표,NA,NA,NULL,NA,NA,NA
oyz,5,6,memory,kr,3,2,음,NA,NA,NULL,NA,NA,NA
oyz,5,6,memory,kr,4,3,휴,NA,NA,NULL,NA,NA,NA
oyz,5,6,memory,kr,5,4,았,NA,NA,NULL,NA,NA,NA
oyz,5,6,memory,kr,6,5,르,NA,NA,NULL,NA,NA,NA
oyz,5,6,updating,kr,1,1,표,조,NA,NULL,NA,NA,yes
oyz,5,6,updating,kr,2,3,휴,효,NA,NULL,NA,NA,yes
oyz,5,6,updating,kr,3,0,문,뜻,NA,NULL,NA,NA,yes
oyz,5,6,retrieval,kr,1,5,르,르,"꾸,보,큼,까,위,뿌",까,FALSE,1582.8999999999069,no
oyz,5,6,retrieval,kr,2,0,문,뜻,"꾸,보,큼,까,위,뿌",뜻,TRUE,4166.700000000186,yes
oyz,5,6,retrieval,kr,3,4,았,았,"꾸,보,큼,까,위,뿌",았,TRUE,1689.6000000000931,no
oyz,5,6,retrieval,kr,4,3,휴,효,"꾸,보,큼,까,위,뿌",효,TRUE,2533.5,yes
oyz,5,6,retrieval,kr,5,2,음,음,"꾸,보,큼,까,위,뿌",음,TRUE,3140.899999999907,no
oyz,5,6,retrieval,kr,6,1,표,조,"꾸,보,큼,까,위,뿌",조,TRUE,2859.5,yes
oyz,5,6,debrief,kr,NA,NA,NA,NA,NA,NULL,NA,NA,NA
oyz,5,7,memory,kr,1,0,았,NA,NA,NULL,NA,NA,NA
oyz,5,7,memory,kr,2,1,르,NA,NA,NULL,NA,NA,NA
oyz,5,7,memory,kr,3,2,뜻,NA,NA,NULL,NA,NA,NA
oyz,5,7,memory,kr,4,3,효,NA,NA,NULL,NA,NA,NA
oyz,5,7,memory,kr,5,4,문,NA,NA,NULL,NA,NA,NA
oyz,5,7,memory,kr,6,5,음,NA,NA,NULL,NA,NA,NA
oyz,5,7,updating,kr,1,1,르,뿌,NA,NULL,NA,NA,yes
oyz,5,7,updating,kr,2,4,문,까,NA,NULL,NA,NA,yes
oyz,5,7,updating,kr,3,3,효,꾸,NA,NULL,NA,NA,yes
oyz,5,7,retrieval,kr,1,2,뜻,뜻,"표,위,보,조,큼,휴",뜻,TRUE,3210.6999999997206,no
oyz,5,7,retrieval,kr,2,3,효,꾸,"표,위,보,조,큼,휴",까,FALSE,7014.399999999907,yes
oyz,5,7,retrieval,kr,3,0,았,았,"표,위,보,조,큼,휴",았,TRUE,5803.100000000093,no
oyz,5,7,retrieval,kr,4,5,음,음,"표,위,보,조,큼,휴",꾸,FALSE,1187.3999999999069,no
oyz,5,7,retrieval,kr,5,4,문,까,"표,위,보,조,큼,휴",까,TRUE,11475.80000000028,yes
oyz,5,7,retrieval,kr,6,1,르,뿌,"표,위,보,조,큼,휴",뿌,TRUE,2464.600000000093,yes
oyz,5,7,debrief,kr,NA,NA,NA,NA,NA,NULL,NA,NA,NA
oyz,5,8,memory,kr,1,0,뿌,NA,NA,NULL,NA,NA,NA
oyz,5,8,memory,kr,2,1,조,NA,NA,NULL,NA,NA,NA
oyz,5,8,memory,kr,3,2,뜻,NA,NA,NULL,NA,NA,NA
oyz,5,8,memory,kr,4,3,음,NA,NA,NULL,NA,NA,NA
oyz,5,8,memory,kr,5,4,휴,NA,NA,NULL,NA,NA,NA
oyz,5,8,memory,kr,6,5,꾸,NA,NA,NULL,NA,NA,NA
oyz,5,8,updating,kr,1,5,꾸,표,NA,NULL,NA,NA,yes
oyz,5,8,updating,kr,2,2,뜻,문,NA,NULL,NA,NA,yes
oyz,5,8,updating,kr,3,4,휴,까,NA,NULL,NA,NA,yes
oyz,5,8,retrieval,kr,1,1,조,조,"위,큼,르,효,았,보",까,FALSE,1498.6999999997206,no
oyz,5,8,retrieval,kr,2,3,음,음,"위,큼,르,효,았,보",았,FALSE,1442.2000000001863,no
oyz,5,8,retrieval,kr,3,2,뜻,문,"위,큼,르,효,았,보",문,TRUE,7165.300000000279,yes
oyz,5,8,retrieval,kr,4,4,휴,까,"위,큼,르,효,았,보",까,TRUE,2247,yes
oyz,5,8,retrieval,kr,5,5,꾸,표,"위,큼,르,효,았,보",표,TRUE,3373.600000000093,yes
oyz,5,8,retrieval,kr,6,0,뿌,뿌,"위,큼,르,효,았,보",뿌,TRUE,1492.8999999999069,no
oyz,5,8,debrief,kr,NA,NA,NA,NA,NA,NULL,NA,NA,NA
