participant,block,trial,screenID,condition,stepID,position,initial_item,final_item,npl_items,answer,acc,rt,updPos
1,1,1,memory,kr,1,0,휴,NA,NA,NULL,NA,NA,NA
1,1,1,memory,kr,2,1,음,NA,NA,NULL,NA,NA,NA
1,1,1,memory,kr,3,2,큼,NA,NA,NULL,NA,NA,NA
1,1,1,memory,kr,4,3,았,NA,NA,NULL,NA,NA,NA
1,1,1,memory,kr,5,4,위,NA,NA,NULL,NA,NA,NA
1,1,1,memory,kr,6,5,보,NA,NA,NULL,NA,NA,NA
1,1,1,updating,kr,1,0,휴,문,NA,NULL,NA,NA,yes
1,1,1,updating,kr,2,3,았,뿌,NA,NULL,NA,NA,yes
1,1,1,updating,kr,3,2,큼,조,NA,NULL,NA,NA,yes
1,1,1,retrieval,kr,1,1,음,음,꾸;까;뜻;효;표;르,문,FALSE,8916,no
1,1,1,retrieval,kr,2,5,보,보,꾸;까;뜻;효;표;르,큼,FALSE,2261.7000000029802,no
1,1,1,retrieval,kr,3,2,큼,조,꾸;까;뜻;효;표;르,까,FALSE,2728.5,yes
1,1,1,retrieval,kr,4,0,휴,문,꾸;까;뜻;효;표;르,효,FALSE,5455.0999999940395,yes
1,1,1,retrieval,kr,5,3,았,뿌,꾸;까;뜻;효;표;르,뿌,TRUE,2188.5999999940395,yes
1,1,1,retrieval,kr,6,4,위,위,꾸;까;뜻;효;표;르,조,FALSE,3581.0999999940395,no
1,1,2,memory,kr,1,0,조,NA,NA,NULL,NA,NA,NA
1,1,2,memory,kr,2,1,보,NA,NA,NULL,NA,NA,NA
1,1,2,memory,kr,3,2,효,NA,NA,NULL,NA,NA,NA
1,1,2,memory,kr,4,3,뿌,NA,NA,NULL,NA,NA,NA
1,1,2,memory,kr,5,4,뜻,NA,NA,NULL,NA,NA,NA
1,1,2,memory,kr,6,5,음,NA,NA,NULL,NA,NA,NA
1,1,2,updating,kr,1,5,음,았,NA,NULL,NA,NA,yes
1,1,2,updating,kr,2,3,뿌,문,NA,NULL,NA,NA,yes
1,1,2,updating,kr,3,0,조,르,NA,NULL,NA,NA,yes
1,1,2,retrieval,kr,1,5,음,았,휴;큼;까;위;표;꾸,뜻,FALSE,2661.2999999970198,yes
1,1,2,retrieval,kr,2,0,조,르,휴;큼;까;위;표;꾸,르,TRUE,1706.7999999970198,yes
1,1,2,retrieval,kr,3,1,보,보,휴;큼;까;위;표;꾸,까,FALSE,8806.19999999553,no
1,1,2,retrieval,kr,4,3,뿌,문,휴;큼;까;위;표;꾸,효,FALSE,6122.70000000298,yes
1,1,2,retrieval,kr,5,2,효,효,휴;큼;까;위;표;꾸,문,FALSE,3608.5,no
1,1,2,retrieval,kr,6,4,뜻,뜻,휴;큼;까;위;표;꾸,았,FALSE,2052.6999999955297,no
1,1,3,memory,kr,1,0,큼,NA,NA,NULL,NA,NA,NA
1,1,3,memory,kr,2,1,효,NA,NA,NULL,NA,NA,NA
1,1,3,memory,kr,3,2,보,NA,NA,NULL,NA,NA,NA
1,1,3,memory,kr,4,3,뜻,NA,NA,NULL,NA,NA,NA
1,1,3,memory,kr,5,4,조,NA,NA,NULL,NA,NA,NA
1,1,3,memory,kr,6,5,르,NA,NA,NULL,NA,NA,NA
1,1,3,updating,kr,1,0,큼,위,NA,NULL,NA,NA,yes
1,1,3,updating,kr,2,2,보,문,NA,NULL,NA,NA,yes
1,1,3,updating,kr,3,5,르,까,NA,NULL,NA,NA,yes
1,1,3,retrieval,kr,1,1,효,효,뿌;았;음;꾸;휴;표,위,FALSE,5556.19999999553,no
1,1,3,retrieval,kr,2,0,큼,위,뿌;았;음;꾸;휴;표,위,TRUE,14662.70000000298,yes
1,1,3,retrieval,kr,3,2,보,문,뿌;았;음;꾸;휴;표,문,TRUE,865.5,yes
1,1,3,retrieval,kr,4,5,르,까,뿌;았;음;꾸;휴;표,까,TRUE,9958.69999999553,yes
1,1,3,retrieval,kr,5,3,뜻,뜻,뿌;았;음;꾸;휴;표,았,FALSE,2073.10000000149,no
1,1,3,retrieval,kr,6,4,조,조,뿌;았;음;꾸;휴;표,음,FALSE,417.8999999985099,no
1,1,4,memory,kr,1,0,문,NA,NA,NULL,NA,NA,NA
1,1,4,memory,kr,2,1,조,NA,NA,NULL,NA,NA,NA
1,1,4,memory,kr,3,2,큼,NA,NA,NULL,NA,NA,NA
1,1,4,memory,kr,4,3,음,NA,NA,NULL,NA,NA,NA
1,1,4,memory,kr,5,4,표,NA,NA,NULL,NA,NA,NA
1,1,4,memory,kr,6,5,뿌,NA,NA,NULL,NA,NA,NA
1,1,4,updating,kr,1,5,뿌,휴,NA,NULL,NA,NA,yes
1,1,4,updating,kr,2,1,조,까,NA,NULL,NA,NA,yes
1,1,4,updating,kr,3,2,큼,보,NA,NULL,NA,NA,yes
1,1,4,retrieval,kr,1,3,음,음,위;르;뜻;효;꾸;았,표,FALSE,6832.70000000298,no
1,1,4,retrieval,kr,2,0,문,문,위;르;뜻;효;꾸;았,큼,FALSE,4930.60000000149,no
1,1,4,retrieval,kr,3,1,조,까,위;르;뜻;효;꾸;았,까,TRUE,6562.20000000298,yes
1,1,4,retrieval,kr,4,4,표,표,위;르;뜻;효;꾸;았,음,FALSE,3620.2000000029802,no
1,1,4,retrieval,kr,5,5,뿌,휴,위;르;뜻;효;꾸;았,문,FALSE,7212.89999999851,yes
1,1,4,retrieval,kr,6,2,큼,보,위;르;뜻;효;꾸;았,조,FALSE,4364.30000000447,yes
1,1,5,memory,kr,1,0,표,NA,NA,NULL,NA,NA,NA
1,1,5,memory,kr,2,1,음,NA,NA,NULL,NA,NA,NA
1,1,5,memory,kr,3,2,았,NA,NA,NULL,NA,NA,NA
1,1,5,memory,kr,4,3,뜻,NA,NA,NULL,NA,NA,NA
1,1,5,memory,kr,5,4,르,NA,NA,NULL,NA,NA,NA
1,1,5,memory,kr,6,5,꾸,NA,NA,NULL,NA,NA,NA
1,1,5,updating,kr,1,2,았,조,NA,NULL,NA,NA,yes
1,1,5,updating,kr,2,5,꾸,위,NA,NULL,NA,NA,yes
1,1,5,updating,kr,3,4,르,휴,NA,NULL,NA,NA,yes
1,1,5,retrieval,kr,1,1,음,음,큼;뿌;보;문;효;까,음,TRUE,7668.10000000149,no
1,1,5,retrieval,kr,2,3,뜻,뜻,큼;뿌;보;문;효;까,뜻,TRUE,3633.89999999851,no
1,1,5,retrieval,kr,3,2,았,조,큼;뿌;보;문;효;까,조,TRUE,4929.89999999851,yes
1,1,5,retrieval,kr,4,4,르,휴,큼;뿌;보;문;효;까,효,FALSE,14845.5,yes
1,1,5,retrieval,kr,5,0,표,표,큼;뿌;보;문;효;까,표,TRUE,2625.0999999940395,no
1,1,5,retrieval,kr,6,5,꾸,위,큼;뿌;보;문;효;까,위,TRUE,5711,yes
1,1,6,memory,kr,1,0,문,NA,NA,NULL,NA,NA,NA
1,1,6,memory,kr,2,1,표,NA,NA,NULL,NA,NA,NA
1,1,6,memory,kr,3,2,위,NA,NA,NULL,NA,NA,NA
1,1,6,memory,kr,4,3,보,NA,NA,NULL,NA,NA,NA
1,1,6,memory,kr,5,4,조,NA,NA,NULL,NA,NA,NA
1,1,6,memory,kr,6,5,꾸,NA,NA,NULL,NA,NA,NA
1,1,6,updating,kr,1,1,표,르,NA,NULL,NA,NA,yes
1,1,6,updating,kr,2,3,보,까,NA,NULL,NA,NA,yes
1,1,6,updating,kr,3,4,조,았,NA,NULL,NA,NA,yes
1,1,6,retrieval,kr,1,0,문,문,휴;효;뜻;뿌;음;큼,문,TRUE,2306.60000000149,no
1,1,6,retrieval,kr,2,1,표,르,휴;효;뜻;뿌;음;큼,르,TRUE,3878,yes
1,1,6,retrieval,kr,3,2,위,위,휴;효;뜻;뿌;음;큼,위,TRUE,1672.5,no
1,1,6,retrieval,kr,4,3,보,까,휴;효;뜻;뿌;음;큼,까,TRUE,3123.5,yes
1,1,6,retrieval,kr,5,5,꾸,꾸,휴;효;뜻;뿌;음;큼,뜻,FALSE,13472.29999999702,no
1,1,6,retrieval,kr,6,4,조,았,휴;효;뜻;뿌;음;큼,았,TRUE,773.7000000029802,yes
1,1,7,memory,kr,1,0,까,NA,NA,NULL,NA,NA,NA
1,1,7,memory,kr,2,1,보,NA,NA,NULL,NA,NA,NA
1,1,7,memory,kr,3,2,큼,NA,NA,NULL,NA,NA,NA
1,1,7,memory,kr,4,3,뜻,NA,NA,NULL,NA,NA,NA
1,1,7,memory,kr,5,4,위,NA,NA,NULL,NA,NA,NA
1,1,7,memory,kr,6,5,조,NA,NA,NULL,NA,NA,NA
1,1,7,updating,kr,1,3,뜻,르,NA,NULL,NA,NA,yes
1,1,7,updating,kr,2,5,조,꾸,NA,NULL,NA,NA,yes
1,1,7,updating,kr,3,0,까,표,NA,NULL,NA,NA,yes
1,1,7,retrieval,kr,1,3,뜻,르,문;았;효;음;뿌;휴,르,TRUE,6472.9000000059605,yes
1,1,7,retrieval,kr,2,2,큼,큼,문;았;효;음;뿌;휴,보,FALSE,9162.39999999851,no
1,1,7,retrieval,kr,3,5,조,꾸,문;았;효;음;뿌;휴,표,FALSE,5857,yes
1,1,7,retrieval,kr,4,0,까,표,문;았;효;음;뿌;휴,까,FALSE,1754.6000000014901,yes
1,1,7,retrieval,kr,5,4,위,위,문;았;효;음;뿌;휴,위,TRUE,3792.3000000044703,no
1,1,7,retrieval,kr,6,1,보,보,문;았;효;음;뿌;휴,보,TRUE,3281.9000000059605,no
1,1,8,memory,kr,1,0,았,NA,NA,NULL,NA,NA,NA
1,1,8,memory,kr,2,1,꾸,NA,NA,NULL,NA,NA,NA
1,1,8,memory,kr,3,2,음,NA,NA,NULL,NA,NA,NA
1,1,8,memory,kr,4,3,위,NA,NA,NULL,NA,NA,NA
1,1,8,memory,kr,5,4,표,NA,NA,NULL,NA,NA,NA
1,1,8,memory,kr,6,5,휴,NA,NA,NULL,NA,NA,NA
1,1,8,updating,kr,1,2,음,뿌,NA,NULL,NA,NA,yes
1,1,8,updating,kr,2,3,위,보,NA,NULL,NA,NA,yes
1,1,8,updating,kr,3,0,았,문,NA,NULL,NA,NA,yes
1,1,8,retrieval,kr,1,5,휴,휴,조;르;뜻;효;까;큼,위,FALSE,3840.2000000029802,no
1,1,8,retrieval,kr,2,3,위,보,조;르;뜻;효;까;큼,뿌,FALSE,16261.40000000596,yes
1,1,8,retrieval,kr,3,2,음,뿌,조;르;뜻;효;까;큼,음,FALSE,859.7999999970198,yes
1,1,8,retrieval,kr,4,4,표,표,조;르;뜻;효;까;큼,조,FALSE,4414.39999999851,no
1,1,8,retrieval,kr,5,1,꾸,꾸,조;르;뜻;효;까;큼,뜻,FALSE,1272.8999999985099,no
1,1,8,retrieval,kr,6,0,았,문,조;르;뜻;효;까;큼,르,FALSE,897.8999999985099,yes
1,2,1,memory,kr,1,0,문,NA,NA,NULL,NA,NA,NA
1,2,1,memory,kr,2,1,휴,NA,NA,NULL,NA,NA,NA
1,2,1,memory,kr,3,2,까,NA,NA,NULL,NA,NA,NA
1,2,1,memory,kr,4,3,음,NA,NA,NULL,NA,NA,NA
1,2,1,memory,kr,5,4,효,NA,NA,NULL,NA,NA,NA
1,2,1,memory,kr,6,5,보,NA,NA,NULL,NA,NA,NA
1,2,1,updating,kr,1,3,음,았,NA,NULL,NA,NA,yes
1,2,1,updating,kr,2,5,보,조,NA,NULL,NA,NA,yes
1,2,1,updating,kr,3,1,휴,표,NA,NULL,NA,NA,yes
1,2,1,retrieval,kr,1,4,효,효,뿌;큼;뜻;꾸;위;르,효,TRUE,6206.5999999940395,no
1,2,1,retrieval,kr,2,5,보,조,뿌;큼;뜻;꾸;위;르,조,TRUE,3731.39999999851,yes
1,2,1,retrieval,kr,3,0,문,문,뿌;큼;뜻;꾸;위;르,문,TRUE,2496.39999999851,no
1,2,1,retrieval,kr,4,2,까,까,뿌;큼;뜻;꾸;위;르,까,TRUE,2849.7999999970198,no
1,2,1,retrieval,kr,5,1,휴,표,뿌;큼;뜻;꾸;위;르,표,TRUE,1625.0999999940395,yes
1,2,1,retrieval,kr,6,3,음,았,뿌;큼;뜻;꾸;위;르,았,TRUE,1756.6000000014901,yes
1,2,2,memory,kr,1,0,휴,NA,NA,NULL,NA,NA,NA
1,2,2,memory,kr,2,1,조,NA,NA,NULL,NA,NA,NA
1,2,2,memory,kr,3,2,위,NA,NA,NULL,NA,NA,NA
1,2,2,memory,kr,4,3,큼,NA,NA,NULL,NA,NA,NA
1,2,2,memory,kr,5,4,표,NA,NA,NULL,NA,NA,NA
1,2,2,memory,kr,6,5,꾸,NA,NA,NULL,NA,NA,NA
1,2,2,updating,kr,1,3,큼,았,NA,NULL,NA,NA,yes
1,2,2,updating,kr,2,5,꾸,효,NA,NULL,NA,NA,yes
1,2,2,updating,kr,3,0,휴,보,NA,NULL,NA,NA,yes
1,2,2,retrieval,kr,1,1,조,조,까;뜻;뿌;문;르;음,조,TRUE,6003.39999999851,no
1,2,2,retrieval,kr,2,2,위,위,까;뜻;뿌;문;르;음,큼,FALSE,4845.10000000149,no
1,2,2,retrieval,kr,3,0,휴,보,까;뜻;뿌;문;르;음,보,TRUE,8874.60000000149,yes
1,2,2,retrieval,kr,4,5,꾸,효,까;뜻;뿌;문;르;음,보,FALSE,6652.10000000149,yes
1,2,2,retrieval,kr,5,4,표,표,까;뜻;뿌;문;르;음,았,FALSE,4227.10000000149,no
1,2,2,retrieval,kr,6,3,큼,았,까;뜻;뿌;문;르;음,았,TRUE,1002.3000000044703,yes
1,2,3,memory,kr,1,0,음,NA,NA,NULL,NA,NA,NA
1,2,3,memory,kr,2,1,조,NA,NA,NULL,NA,NA,NA
1,2,3,memory,kr,3,2,위,NA,NA,NULL,NA,NA,NA
1,2,3,memory,kr,4,3,르,NA,NA,NULL,NA,NA,NA
1,2,3,memory,kr,5,4,았,NA,NA,NULL,NA,NA,NA
1,2,3,memory,kr,6,5,꾸,NA,NA,NULL,NA,NA,NA
1,2,3,updating,kr,1,4,았,휴,NA,NULL,NA,NA,yes
1,2,3,updating,kr,2,0,음,뜻,NA,NULL,NA,NA,yes
1,2,3,updating,kr,3,1,조,문,NA,NULL,NA,NA,yes
1,2,3,retrieval,kr,1,4,았,휴,효;까;뿌;표;보;큼,았,FALSE,5914.30000000447,yes
1,2,3,retrieval,kr,2,3,르,르,효;까;뿌;표;보;큼,위,FALSE,3171.9000000059605,no
1,2,3,retrieval,kr,3,2,위,위,효;까;뿌;표;보;큼,조,FALSE,2662,no
1,2,3,retrieval,kr,4,1,조,문,효;까;뿌;표;보;큼,효,FALSE,8265.10000000149,yes
1,2,3,retrieval,kr,5,0,음,뜻,효;까;뿌;표;보;큼,뜻,TRUE,1460.2000000029802,yes
1,2,3,retrieval,kr,6,5,꾸,꾸,효;까;뿌;표;보;큼,꾸,TRUE,5119.5,no
1,2,4,memory,kr,1,0,휴,NA,NA,NULL,NA,NA,NA
1,2,4,memory,kr,2,1,조,NA,NA,NULL,NA,NA,NA
1,2,4,memory,kr,3,2,표,NA,NA,NULL,NA,NA,NA
1,2,4,memory,kr,4,3,뜻,NA,NA,NULL,NA,NA,NA
1,2,4,memory,kr,5,4,위,NA,NA,NULL,NA,NA,NA
1,2,4,memory,kr,6,5,뿌,NA,NA,NULL,NA,NA,NA
1,2,4,updating,kr,1,1,조,보,NA,NULL,NA,NA,yes
1,2,4,updating,kr,2,2,표,큼,NA,NULL,NA,NA,yes
1,2,4,updating,kr,3,0,휴,문,NA,NULL,NA,NA,yes
1,2,4,retrieval,kr,1,5,뿌,뿌,르;꾸;았;음;까;효,뿌,TRUE,4861.39999999851,no
1,2,4,retrieval,kr,2,1,조,보,르;꾸;았;음;까;효,보,TRUE,6783,yes
1,2,4,retrieval,kr,3,2,표,큼,르;꾸;았;음;까;효,큼,TRUE,3655.39999999851,yes
1,2,4,retrieval,kr,4,4,위,위,르;꾸;았;음;까;효,뜻,FALSE,13715,no
1,2,4,retrieval,kr,5,3,뜻,뜻,르;꾸;았;음;까;효,위,FALSE,3739,no
1,2,4,retrieval,kr,6,0,휴,문,르;꾸;았;음;까;효,문,TRUE,3321.2999999970198,yes
1,2,5,memory,kr,1,0,았,NA,NA,NULL,NA,NA,NA
1,2,5,memory,kr,2,1,까,NA,NA,NULL,NA,NA,NA
1,2,5,memory,kr,3,2,큼,NA,NA,NULL,NA,NA,NA
1,2,5,memory,kr,4,3,표,NA,NA,NULL,NA,NA,NA
1,2,5,memory,kr,5,4,음,NA,NA,NULL,NA,NA,NA
1,2,5,memory,kr,6,5,르,NA,NA,NULL,NA,NA,NA
1,2,5,updating,kr,1,3,표,보,NA,NULL,NA,NA,yes
1,2,5,updating,kr,2,0,았,문,NA,NULL,NA,NA,yes
1,2,5,updating,kr,3,2,큼,효,NA,NULL,NA,NA,yes
1,2,5,retrieval,kr,1,5,르,르,꾸;위;뜻;뿌;조;휴,르,TRUE,3415.10000000149,no
1,2,5,retrieval,kr,2,0,았,문,꾸;위;뜻;뿌;조;휴,문,TRUE,2645.89999999851,yes
1,2,5,retrieval,kr,3,3,표,보,꾸;위;뜻;뿌;조;휴,보,TRUE,2036.3999999985099,yes
1,2,5,retrieval,kr,4,2,큼,효,꾸;위;뜻;뿌;조;휴,효,TRUE,18067.30000000447,yes
1,2,5,retrieval,kr,5,1,까,까,꾸;위;뜻;뿌;조;휴,았,FALSE,7260.69999999553,no
1,2,5,retrieval,kr,6,4,음,음,꾸;위;뜻;뿌;조;휴,음,TRUE,6908.5,no
1,2,6,memory,kr,1,0,표,NA,NA,NULL,NA,NA,NA
1,2,6,memory,kr,2,1,효,NA,NA,NULL,NA,NA,NA
1,2,6,memory,kr,3,2,았,NA,NA,NULL,NA,NA,NA
1,2,6,memory,kr,4,3,휴,NA,NA,NULL,NA,NA,NA
1,2,6,memory,kr,5,4,문,NA,NA,NULL,NA,NA,NA
1,2,6,memory,kr,6,5,뿌,NA,NA,NULL,NA,NA,NA
1,2,6,updating,kr,1,3,휴,큼,NA,NULL,NA,NA,yes
1,2,6,updating,kr,2,4,문,음,NA,NULL,NA,NA,yes
1,2,6,updating,kr,3,1,효,조,NA,NULL,NA,NA,yes
1,2,6,retrieval,kr,1,3,휴,큼,꾸;뜻;르;위;까;보,문,FALSE,18520,yes
1,2,6,retrieval,kr,2,1,효,조,꾸;뜻;르;위;까;보,효,FALSE,5030.39999999851,yes
1,2,6,retrieval,kr,3,0,표,표,꾸;뜻;르;위;까;보,표,TRUE,2178.8000000044703,no
1,2,6,retrieval,kr,4,2,았,았,꾸;뜻;르;위;까;보,았,TRUE,2104.1999999955297,no
1,2,6,retrieval,kr,5,4,문,음,꾸;뜻;르;위;까;보,보,FALSE,7286.19999999553,yes
1,2,6,retrieval,kr,6,5,뿌,뿌,꾸;뜻;르;위;까;보,뿌,TRUE,843.8999999985099,no
1,2,7,memory,kr,1,0,휴,NA,NA,NULL,NA,NA,NA
1,2,7,memory,kr,2,1,위,NA,NA,NULL,NA,NA,NA
1,2,7,memory,kr,3,2,았,NA,NA,NULL,NA,NA,NA
1,2,7,memory,kr,4,3,뜻,NA,NA,NULL,NA,NA,NA
1,2,7,memory,kr,5,4,큼,NA,NA,NULL,NA,NA,NA
1,2,7,memory,kr,6,5,효,NA,NA,NULL,NA,NA,NA
1,2,7,updating,kr,1,5,효,르,NA,NULL,NA,NA,yes
1,2,7,updating,kr,2,3,뜻,표,NA,NULL,NA,NA,yes
1,2,7,updating,kr,3,1,위,뿌,NA,NULL,NA,NA,yes
1,2,7,retrieval,kr,1,1,위,뿌,음;까;보;문;조;꾸,뿌,TRUE,2089.0999999940395,yes
1,2,7,retrieval,kr,2,2,았,았,음;까;보;문;조;꾸,뜻,FALSE,1969.5,no
1,2,7,retrieval,kr,3,0,휴,휴,음;까;보;문;조;꾸,휴,TRUE,2857.9000000059605,no
1,2,7,retrieval,kr,4,5,효,르,음;까;보;문;조;꾸,았,FALSE,8158.30000000447,yes
1,2,7,retrieval,kr,5,4,큼,큼,음;까;보;문;조;꾸,효,FALSE,2109.2999999970198,no
1,2,7,retrieval,kr,6,3,뜻,표,음;까;보;문;조;꾸,효,FALSE,610.3999999985099,yes
1,2,8,memory,kr,1,0,뜻,NA,NA,NULL,NA,NA,NA
1,2,8,memory,kr,2,1,문,NA,NA,NULL,NA,NA,NA
1,2,8,memory,kr,3,2,뿌,NA,NA,NULL,NA,NA,NA
1,2,8,memory,kr,4,3,꾸,NA,NA,NULL,NA,NA,NA
1,2,8,memory,kr,5,4,았,NA,NA,NULL,NA,NA,NA
1,2,8,memory,kr,6,5,효,NA,NA,NULL,NA,NA,NA
1,2,8,updating,kr,1,4,았,휴,NA,NULL,NA,NA,yes
1,2,8,updating,kr,2,5,효,위,NA,NULL,NA,NA,yes
1,2,8,updating,kr,3,1,문,큼,NA,NULL,NA,NA,yes
1,2,8,retrieval,kr,1,2,뿌,뿌,보;표;조;음;까;르,뿌,TRUE,6811.20000000298,no
1,2,8,retrieval,kr,2,0,뜻,뜻,보;표;조;음;까;르,뜻,TRUE,1418.3000000044703,no
1,2,8,retrieval,kr,3,5,효,위,보;표;조;음;까;르,위,TRUE,6213.5,yes
1,2,8,retrieval,kr,4,4,았,휴,보;표;조;음;까;르,꾸,FALSE,4038.5999999940395,yes
1,2,8,retrieval,kr,5,3,꾸,꾸,보;표;조;음;까;르,꾸,TRUE,2692.5999999940395,no
1,2,8,retrieval,kr,6,1,문,큼,보;표;조;음;까;르,효,FALSE,6071.9000000059605,yes
1,3,1,memory,kr,1,0,르,NA,NA,NULL,NA,NA,NA
1,3,1,memory,kr,2,1,조,NA,NA,NULL,NA,NA,NA
1,3,1,memory,kr,3,2,았,NA,NA,NULL,NA,NA,NA
1,3,1,memory,kr,4,3,표,NA,NA,NULL,NA,NA,NA
1,3,1,memory,kr,5,4,뿌,NA,NA,NULL,NA,NA,NA
1,3,1,memory,kr,6,5,큼,NA,NA,NULL,NA,NA,NA
1,3,1,updating,kr,1,3,표,꾸,NA,NULL,NA,NA,yes
1,3,1,updating,kr,2,0,르,까,NA,NULL,NA,NA,yes
1,3,1,updating,kr,3,4,뿌,보,NA,NULL,NA,NA,yes
1,3,1,retrieval,kr,1,4,뿌,보,효;문;위;음;뜻;휴,보,TRUE,2488.3000000044703,yes
1,3,1,retrieval,kr,2,2,았,았,효;문;위;음;뜻;휴,았,TRUE,2283,no
1,3,1,retrieval,kr,3,1,조,조,효;문;위;음;뜻;휴,표,FALSE,3190.5,no
1,3,1,retrieval,kr,4,5,큼,큼,효;문;위;음;뜻;휴,큼,TRUE,10097.19999999553,no
1,3,1,retrieval,kr,5,3,표,꾸,효;문;위;음;뜻;휴,큼,FALSE,9145,yes
1,3,1,retrieval,kr,6,0,르,까,효;문;위;음;뜻;휴,큼,FALSE,1362.3999999985099,yes
1,3,2,memory,kr,1,0,효,NA,NA,NULL,NA,NA,NA
1,3,2,memory,kr,2,1,큼,NA,NA,NULL,NA,NA,NA
1,3,2,memory,kr,3,2,뜻,NA,NA,NULL,NA,NA,NA
1,3,2,memory,kr,4,3,위,NA,NA,NULL,NA,NA,NA
1,3,2,memory,kr,5,4,문,NA,NA,NULL,NA,NA,NA
1,3,2,memory,kr,6,5,뿌,NA,NA,NULL,NA,NA,NA
1,3,2,updating,kr,1,1,큼,보,NA,NULL,NA,NA,yes
1,3,2,updating,kr,2,2,뜻,휴,NA,NULL,NA,NA,yes
1,3,2,updating,kr,3,4,문,표,NA,NULL,NA,NA,yes
1,3,2,retrieval,kr,1,4,문,표,았;조;까;르;꾸;음,표,TRUE,2674.39999999851,yes
1,3,2,retrieval,kr,2,1,큼,보,았;조;까;르;꾸;음,보,TRUE,9177.10000000149,yes
1,3,2,retrieval,kr,3,2,뜻,휴,았;조;까;르;꾸;음,휴,TRUE,3303.4000000059605,yes
1,3,2,retrieval,kr,4,0,효,효,았;조;까;르;꾸;음,효,TRUE,1956.6999999955297,no
1,3,2,retrieval,kr,5,5,뿌,뿌,았;조;까;르;꾸;음,뿌,TRUE,2715.0999999940395,no
1,3,2,retrieval,kr,6,3,위,위,았;조;까;르;꾸;음,큼,FALSE,6604.39999999851,no
1,3,3,memory,kr,1,0,휴,NA,NA,NULL,NA,NA,NA
1,3,3,memory,kr,2,1,문,NA,NA,NULL,NA,NA,NA
1,3,3,memory,kr,3,2,위,NA,NA,NULL,NA,NA,NA
1,3,3,memory,kr,4,3,뜻,NA,NA,NULL,NA,NA,NA
1,3,3,memory,kr,5,4,꾸,NA,NA,NULL,NA,NA,NA
1,3,3,memory,kr,6,5,았,NA,NA,NULL,NA,NA,NA
1,3,3,updating,kr,1,4,꾸,조,NA,NULL,NA,NA,yes
1,3,3,updating,kr,2,2,위,음,NA,NULL,NA,NA,yes
1,3,3,updating,kr,3,3,뜻,큼,NA,NULL,NA,NA,yes
1,3,3,retrieval,kr,1,5,았,았,르;까;보;뿌;효;표,았,TRUE,3520.2000000029802,no
1,3,3,retrieval,kr,2,2,위,음,르;까;보;뿌;효;표,음,TRUE,6205,yes
1,3,3,retrieval,kr,3,0,휴,휴,르;까;보;뿌;효;표,휴,TRUE,2463.89999999851,no
1,3,3,retrieval,kr,4,1,문,문,르;까;보;뿌;효;표,문,TRUE,4735.60000000149,no
1,3,3,retrieval,kr,5,3,뜻,큼,르;까;보;뿌;효;표,큼,TRUE,3580.39999999851,yes
1,3,3,retrieval,kr,6,4,꾸,조,르;까;보;뿌;효;표,조,TRUE,3222.3000000044703,yes
1,3,4,memory,kr,1,0,꾸,NA,NA,NULL,NA,NA,NA
1,3,4,memory,kr,2,1,위,NA,NA,NULL,NA,NA,NA
1,3,4,memory,kr,3,2,문,NA,NA,NULL,NA,NA,NA
1,3,4,memory,kr,4,3,까,NA,NA,NULL,NA,NA,NA
1,3,4,memory,kr,5,4,았,NA,NA,NULL,NA,NA,NA
1,3,4,memory,kr,6,5,조,NA,NA,NULL,NA,NA,NA
1,3,4,updating,kr,1,5,조,휴,NA,NULL,NA,NA,yes
1,3,4,updating,kr,2,0,꾸,뜻,NA,NULL,NA,NA,yes
1,3,4,updating,kr,3,3,까,보,NA,NULL,NA,NA,yes
1,3,4,retrieval,kr,1,0,꾸,뜻,큼;뿌;르;표;음;효,뜻,TRUE,2521.2999999970198,yes
1,3,4,retrieval,kr,2,1,위,위,큼;뿌;르;표;음;효,위,TRUE,4079.3000000044703,no
1,3,4,retrieval,kr,3,5,조,휴,큼;뿌;르;표;음;효,았,FALSE,7245.30000000447,yes
1,3,4,retrieval,kr,4,2,문,문,큼;뿌;르;표;음;효,문,TRUE,3570,no
1,3,4,retrieval,kr,5,4,았,았,큼;뿌;르;표;음;효,았,TRUE,9893.20000000298,no
1,3,4,retrieval,kr,6,3,까,보,큼;뿌;르;표;음;효,보,TRUE,7556.60000000149,yes
1,3,5,memory,kr,1,0,았,NA,NA,NULL,NA,NA,NA
1,3,5,memory,kr,2,1,르,NA,NA,NULL,NA,NA,NA
1,3,5,memory,kr,3,2,음,NA,NA,NULL,NA,NA,NA
1,3,5,memory,kr,4,3,조,NA,NA,NULL,NA,NA,NA
1,3,5,memory,kr,5,4,큼,NA,NA,NULL,NA,NA,NA
1,3,5,memory,kr,6,5,표,NA,NA,NULL,NA,NA,NA
1,3,5,updating,kr,1,3,조,휴,NA,NULL,NA,NA,yes
1,3,5,updating,kr,2,1,르,까,NA,NULL,NA,NA,yes
1,3,5,updating,kr,3,4,큼,뜻,NA,NULL,NA,NA,yes
1,3,5,retrieval,kr,1,2,음,음,문;보;효;꾸;위;뿌,음,TRUE,3159,no
1,3,5,retrieval,kr,2,5,표,표,문;보;효;꾸;위;뿌,표,TRUE,3526.2999999970198,no
1,3,5,retrieval,kr,3,0,았,았,문;보;효;꾸;위;뿌,았,TRUE,5210.29999999702,no
1,3,5,retrieval,kr,4,1,르,까,문;보;효;꾸;위;뿌,꾸,FALSE,2771.39999999851,yes
1,3,5,retrieval,kr,5,3,조,휴,문;보;효;꾸;위;뿌,휴,TRUE,3661.10000000149,yes
1,3,5,retrieval,kr,6,4,큼,뜻,문;보;효;꾸;위;뿌,뜻,TRUE,3257.5999999940395,yes
1,3,6,memory,kr,1,0,휴,NA,NA,NULL,NA,NA,NA
1,3,6,memory,kr,2,1,았,NA,NA,NULL,NA,NA,NA
1,3,6,memory,kr,3,2,문,NA,NA,NULL,NA,NA,NA
1,3,6,memory,kr,4,3,표,NA,NA,NULL,NA,NA,NA
1,3,6,memory,kr,5,4,뿌,NA,NA,NULL,NA,NA,NA
1,3,6,memory,kr,6,5,뜻,NA,NA,NULL,NA,NA,NA
1,3,6,updating,kr,1,1,았,큼,NA,NULL,NA,NA,yes
1,3,6,updating,kr,2,4,뿌,효,NA,NULL,NA,NA,yes
1,3,6,updating,kr,3,0,휴,꾸,NA,NULL,NA,NA,yes
1,3,6,retrieval,kr,1,2,문,문,까;보;조;음;르;위,문,TRUE,7162.19999999553,no
1,3,6,retrieval,kr,2,3,표,표,까;보;조;음;르;위,표,TRUE,2572.2000000029802,no
1,3,6,retrieval,kr,3,0,휴,꾸,까;보;조;음;르;위,꾸,TRUE,9349.80000000447,yes
1,3,6,retrieval,kr,4,5,뜻,뜻,까;보;조;음;르;위,뜻,TRUE,1682,no
1,3,6,retrieval,kr,5,4,뿌,효,까;보;조;음;르;위,효,TRUE,1445.2999999970198,yes
1,3,6,retrieval,kr,6,1,았,큼,까;보;조;음;르;위,까,FALSE,6793.20000000298,yes
1,3,7,memory,kr,1,0,음,NA,NA,NULL,NA,NA,NA
1,3,7,memory,kr,2,1,표,NA,NA,NULL,NA,NA,NA
1,3,7,memory,kr,3,2,르,NA,NA,NULL,NA,NA,NA
1,3,7,memory,kr,4,3,문,NA,NA,NULL,NA,NA,NA
1,3,7,memory,kr,5,4,효,NA,NA,NULL,NA,NA,NA
1,3,7,memory,kr,6,5,뿌,NA,NA,NULL,NA,NA,NA
1,3,7,updating,kr,1,3,문,까,NA,NULL,NA,NA,yes
1,3,7,updating,kr,2,5,뿌,았,NA,NULL,NA,NA,yes
1,3,7,updating,kr,3,2,르,휴,NA,NULL,NA,NA,yes
1,3,7,retrieval,kr,1,0,음,음,꾸;조;큼;보;위;뜻,음,TRUE,11005.80000000447,no
1,3,7,retrieval,kr,2,4,효,효,꾸;조;큼;보;위;뜻,효,TRUE,7264.5,no
1,3,7,retrieval,kr,3,5,뿌,았,꾸;조;큼;보;위;뜻,뜻,FALSE,4781,yes
1,3,7,retrieval,kr,4,2,르,휴,꾸;조;큼;보;위;뜻,조,FALSE,5468.39999999851,yes
1,3,7,retrieval,kr,5,3,문,까,꾸;조;큼;보;위;뜻,까,TRUE,6234.39999999851,yes
1,3,7,retrieval,kr,6,1,표,표,꾸;조;큼;보;위;뜻,표,TRUE,1987,no
1,3,8,memory,kr,1,0,표,NA,NA,NULL,NA,NA,NA
1,3,8,memory,kr,2,1,뿌,NA,NA,NULL,NA,NA,NA
1,3,8,memory,kr,3,2,휴,NA,NA,NULL,NA,NA,NA
1,3,8,memory,kr,4,3,르,NA,NA,NULL,NA,NA,NA
1,3,8,memory,kr,5,4,문,NA,NA,NULL,NA,NA,NA
1,3,8,memory,kr,6,5,꾸,NA,NA,NULL,NA,NA,NA
1,3,8,updating,kr,1,4,문,큼,NA,NULL,NA,NA,yes
1,3,8,updating,kr,2,2,휴,위,NA,NULL,NA,NA,yes
1,3,8,updating,kr,3,3,르,까,NA,NULL,NA,NA,yes
1,3,8,retrieval,kr,1,2,휴,위,효;았;음;보;조;뜻,위,TRUE,2466.2999999970198,yes
1,3,8,retrieval,kr,2,3,르,까,효;았;음;보;조;뜻,까,TRUE,2171.1999999955297,yes
1,3,8,retrieval,kr,3,4,문,큼,효;았;음;보;조;뜻,문,FALSE,8796.19999999553,yes
1,3,8,retrieval,kr,4,1,뿌,뿌,효;았;음;보;조;뜻,뿌,TRUE,2907.10000000149,no
1,3,8,retrieval,kr,5,0,표,표,효;았;음;보;조;뜻,표,TRUE,1136.5,no
1,3,8,retrieval,kr,6,5,꾸,꾸,효;았;음;보;조;뜻,음,FALSE,3128.89999999851,no
1,4,1,memory,kr,1,0,뿌,NA,NA,NULL,NA,NA,NA
1,4,1,memory,kr,2,1,뜻,NA,NA,NULL,NA,NA,NA
1,4,1,memory,kr,3,2,꾸,NA,NA,NULL,NA,NA,NA
1,4,1,memory,kr,4,3,효,NA,NA,NULL,NA,NA,NA
1,4,1,memory,kr,5,4,조,NA,NA,NULL,NA,NA,NA
1,4,1,memory,kr,6,5,문,NA,NA,NULL,NA,NA,NA
1,4,1,updating,kr,1,5,문,표,NA,NULL,NA,NA,yes
1,4,1,updating,kr,2,4,조,았,NA,NULL,NA,NA,yes
1,4,1,updating,kr,3,2,꾸,르,NA,NULL,NA,NA,yes
1,4,1,retrieval,kr,1,0,뿌,뿌,까;보;위;휴;음;큼,뿌,TRUE,2410.5999999940395,no
1,4,1,retrieval,kr,2,5,문,표,까;보;위;휴;음;큼,표,TRUE,2473.7000000029802,yes
1,4,1,retrieval,kr,3,2,꾸,르,까;보;위;휴;음;큼,르,TRUE,5509.70000000298,yes
1,4,1,retrieval,kr,4,4,조,았,까;보;위;휴;음;큼,았,TRUE,3140.39999999851,yes
1,4,1,retrieval,kr,5,1,뜻,뜻,까;보;위;휴;음;큼,뜻,TRUE,3772.60000000149,no
1,4,1,retrieval,kr,6,3,효,효,까;보;위;휴;음;큼,효,TRUE,7729.70000000298,no
1,4,2,memory,kr,1,0,음,NA,NA,NULL,NA,NA,NA
1,4,2,memory,kr,2,1,효,NA,NA,NULL,NA,NA,NA
1,4,2,memory,kr,3,2,뿌,NA,NA,NULL,NA,NA,NA
1,4,2,memory,kr,4,3,문,NA,NA,NULL,NA,NA,NA
1,4,2,memory,kr,5,4,위,NA,NA,NULL,NA,NA,NA
1,4,2,memory,kr,6,5,조,NA,NA,NULL,NA,NA,NA
1,4,2,updating,kr,1,1,효,큼,NA,NULL,NA,NA,yes
1,4,2,updating,kr,2,2,뿌,꾸,NA,NULL,NA,NA,yes
1,4,2,updating,kr,3,0,음,뜻,NA,NULL,NA,NA,yes
1,4,2,retrieval,kr,1,2,뿌,꾸,표;르;휴;까;았;보,꾸,TRUE,2698.60000000149,yes
1,4,2,retrieval,kr,2,4,위,위,표;르;휴;까;았;보,조,FALSE,3880.5,no
1,4,2,retrieval,kr,3,5,조,조,표;르;휴;까;았;보,효,FALSE,8456.69999999553,no
1,4,2,retrieval,kr,4,1,효,큼,표;르;휴;까;았;보,큼,TRUE,10965.59999999404,yes
1,4,2,retrieval,kr,5,3,문,문,표;르;휴;까;았;보,문,TRUE,4321.80000000447,no
1,4,2,retrieval,kr,6,0,음,뜻,표;르;휴;까;았;보,뜻,TRUE,3521.89999999851,yes
1,4,3,memory,kr,1,0,조,NA,NA,NULL,NA,NA,NA
1,4,3,memory,kr,2,1,꾸,NA,NA,NULL,NA,NA,NA
1,4,3,memory,kr,3,2,았,NA,NA,NULL,NA,NA,NA
1,4,3,memory,kr,4,3,위,NA,NA,NULL,NA,NA,NA
1,4,3,memory,kr,5,4,큼,NA,NA,NULL,NA,NA,NA
1,4,3,memory,kr,6,5,보,NA,NA,NULL,NA,NA,NA
1,4,3,updating,kr,1,0,조,문,NA,NULL,NA,NA,yes
1,4,3,updating,kr,2,4,큼,르,NA,NULL,NA,NA,yes
1,4,3,updating,kr,3,1,꾸,까,NA,NULL,NA,NA,yes
1,4,3,retrieval,kr,1,4,큼,르,효;뜻;음;휴;표;뿌,르,TRUE,2791.6999999955297,yes
1,4,3,retrieval,kr,2,5,보,보,효;뜻;음;휴;표;뿌,보,TRUE,10173.59999999404,no
1,4,3,retrieval,kr,3,1,꾸,까,효;뜻;음;휴;표;뿌,까,TRUE,2442.2000000029802,yes
1,4,3,retrieval,kr,4,2,았,았,효;뜻;음;휴;표;뿌,꾸,FALSE,5878.4000000059605,no
1,4,3,retrieval,kr,5,3,위,위,효;뜻;음;휴;표;뿌,음,FALSE,5024.80000000447,no
1,4,3,retrieval,kr,6,0,조,문,효;뜻;음;휴;표;뿌,조,FALSE,2873.39999999851,yes
1,4,4,memory,kr,1,0,조,NA,NA,NULL,NA,NA,NA
1,4,4,memory,kr,2,1,았,NA,NA,NULL,NA,NA,NA
1,4,4,memory,kr,3,2,위,NA,NA,NULL,NA,NA,NA
1,4,4,memory,kr,4,3,휴,NA,NA,NULL,NA,NA,NA
1,4,4,memory,kr,5,4,보,NA,NA,NULL,NA,NA,NA
1,4,4,memory,kr,6,5,까,NA,NA,NULL,NA,NA,NA
1,4,4,updating,kr,1,2,위,문,NA,NULL,NA,NA,yes
1,4,4,updating,kr,2,5,까,표,NA,NULL,NA,NA,yes
1,4,4,updating,kr,3,0,조,뿌,NA,NULL,NA,NA,yes
1,4,4,retrieval,kr,1,4,보,보,음;르;뜻;큼;꾸;효,뜻,FALSE,2679.39999999851,no
1,4,4,retrieval,kr,2,2,위,문,음;르;뜻;큼;꾸;효,표,FALSE,3345.7999999970198,yes
1,4,4,retrieval,kr,3,5,까,표,음;르;뜻;큼;꾸;효,보,FALSE,6317.89999999851,yes
1,4,4,retrieval,kr,4,1,았,았,음;르;뜻;큼;꾸;효,았,TRUE,4118.89999999851,no
1,4,4,retrieval,kr,5,3,휴,휴,음;르;뜻;큼;꾸;효,휴,TRUE,6369.10000000149,no
1,4,4,retrieval,kr,6,0,조,뿌,음;르;뜻;큼;꾸;효,뿌,TRUE,2082.8000000044703,yes
1,4,5,memory,kr,1,0,꾸,NA,NA,NULL,NA,NA,NA
1,4,5,memory,kr,2,1,문,NA,NA,NULL,NA,NA,NA
1,4,5,memory,kr,3,2,조,NA,NA,NULL,NA,NA,NA
1,4,5,memory,kr,4,3,까,NA,NA,NULL,NA,NA,NA
1,4,5,memory,kr,5,4,효,NA,NA,NULL,NA,NA,NA
1,4,5,memory,kr,6,5,큼,NA,NA,NULL,NA,NA,NA
1,4,5,updating,kr,1,1,문,보,NA,NULL,NA,NA,yes
1,4,5,updating,kr,2,3,까,았,NA,NULL,NA,NA,yes
1,4,5,updating,kr,3,2,조,르,NA,NULL,NA,NA,yes
1,4,5,retrieval,kr,1,1,문,보,휴;위;표;뜻;뿌;음,보,TRUE,5212.39999999851,yes
1,4,5,retrieval,kr,2,0,꾸,꾸,휴;위;표;뜻;뿌;음,까,FALSE,3872,no
1,4,5,retrieval,kr,3,5,큼,큼,휴;위;표;뜻;뿌;음,큼,TRUE,6299.70000000298,no
1,4,5,retrieval,kr,4,4,효,효,휴;위;표;뜻;뿌;음,았,FALSE,3568.3000000044703,no
1,4,5,retrieval,kr,5,2,조,르,휴;위;표;뜻;뿌;음,르,TRUE,2092.3000000044703,yes
1,4,5,retrieval,kr,6,3,까,았,휴;위;표;뜻;뿌;음,효,FALSE,1859.2999999970198,yes
1,4,6,memory,kr,1,0,위,NA,NA,NULL,NA,NA,NA
1,4,6,memory,kr,2,1,음,NA,NA,NULL,NA,NA,NA
1,4,6,memory,kr,3,2,표,NA,NA,NULL,NA,NA,NA
1,4,6,memory,kr,4,3,문,NA,NA,NULL,NA,NA,NA
1,4,6,memory,kr,5,4,조,NA,NA,NULL,NA,NA,NA
1,4,6,memory,kr,6,5,큼,NA,NA,NULL,NA,NA,NA
1,4,6,updating,kr,1,0,위,효,NA,NULL,NA,NA,yes
1,4,6,updating,kr,2,1,음,았,NA,NULL,NA,NA,yes
1,4,6,updating,kr,3,4,조,휴,NA,NULL,NA,NA,yes
1,4,6,retrieval,kr,1,5,큼,큼,뿌;보;뜻;까;르;꾸,큼,TRUE,8105.20000000298,no
1,4,6,retrieval,kr,2,4,조,휴,뿌;보;뜻;까;르;꾸,휴,TRUE,4699.19999999553,yes
1,4,6,retrieval,kr,3,1,음,았,뿌;보;뜻;까;르;꾸,았,TRUE,1689.1000000014901,yes
1,4,6,retrieval,kr,4,2,표,표,뿌;보;뜻;까;르;꾸,표,TRUE,3944.8000000044703,no
1,4,6,retrieval,kr,5,3,문,문,뿌;보;뜻;까;르;꾸,뿌,FALSE,5153.10000000149,no
1,4,6,retrieval,kr,6,0,위,효,뿌;보;뜻;까;르;꾸,효,TRUE,794.6000000014901,yes
1,4,7,memory,kr,1,0,음,NA,NA,NULL,NA,NA,NA
1,4,7,memory,kr,2,1,위,NA,NA,NULL,NA,NA,NA
1,4,7,memory,kr,3,2,조,NA,NA,NULL,NA,NA,NA
1,4,7,memory,kr,4,3,표,NA,NA,NULL,NA,NA,NA
1,4,7,memory,kr,5,4,효,NA,NA,NULL,NA,NA,NA
1,4,7,memory,kr,6,5,보,NA,NA,NULL,NA,NA,NA
1,4,7,updating,kr,1,5,보,휴,NA,NULL,NA,NA,yes
1,4,7,updating,kr,2,2,조,았,NA,NULL,NA,NA,yes
1,4,7,updating,kr,3,0,음,까,NA,NULL,NA,NA,yes
1,4,7,retrieval,kr,1,2,조,았,꾸;문;뜻;르;큼;뿌,았,TRUE,3995.1999999955297,yes
1,4,7,retrieval,kr,2,3,표,표,꾸;문;뜻;르;큼;뿌,표,TRUE,2257.7999999970198,no
1,4,7,retrieval,kr,3,5,보,휴,꾸;문;뜻;르;큼;뿌,휴,TRUE,2309.7999999970198,yes
1,4,7,retrieval,kr,4,4,효,효,꾸;문;뜻;르;큼;뿌,효,TRUE,6239.30000000447,no
1,4,7,retrieval,kr,5,1,위,위,꾸;문;뜻;르;큼;뿌,조,FALSE,2099,no
1,4,7,retrieval,kr,6,0,음,까,꾸;문;뜻;르;큼;뿌,큼,FALSE,2014.5999999940395,yes
1,4,8,memory,kr,1,0,보,NA,NA,NULL,NA,NA,NA
1,4,8,memory,kr,2,1,르,NA,NA,NULL,NA,NA,NA
1,4,8,memory,kr,3,2,조,NA,NA,NULL,NA,NA,NA
1,4,8,memory,kr,4,3,문,NA,NA,NULL,NA,NA,NA
1,4,8,memory,kr,5,4,꾸,NA,NA,NULL,NA,NA,NA
1,4,8,memory,kr,6,5,뜻,NA,NA,NULL,NA,NA,NA
1,4,8,updating,kr,1,5,뜻,음,NA,NULL,NA,NA,yes
1,4,8,updating,kr,2,3,문,았,NA,NULL,NA,NA,yes
1,4,8,updating,kr,3,2,조,까,NA,NULL,NA,NA,yes
1,4,8,retrieval,kr,1,0,보,보,효;뿌;위;큼;표;휴,보,TRUE,7597,no
1,4,8,retrieval,kr,2,2,조,까,효;뿌;위;큼;표;휴,꾸,FALSE,4524.39999999851,yes
1,4,8,retrieval,kr,3,5,뜻,음,효;뿌;위;큼;표;휴,큼,FALSE,2487.89999999851,yes
1,4,8,retrieval,kr,4,1,르,르,효;뿌;위;큼;표;휴,르,TRUE,3888,no
1,4,8,retrieval,kr,5,4,꾸,꾸,효;뿌;위;큼;표;휴,꾸,TRUE,4027,no
1,4,8,retrieval,kr,6,3,문,았,효;뿌;위;큼;표;휴,았,TRUE,4936.39999999851,yes
1,5,1,memory,kr,1,0,효,NA,NA,NULL,NA,NA,NA
1,5,1,memory,kr,2,1,표,NA,NA,NULL,NA,NA,NA
1,5,1,memory,kr,3,2,르,NA,NA,NULL,NA,NA,NA
1,5,1,memory,kr,4,3,꾸,NA,NA,NULL,NA,NA,NA
1,5,1,memory,kr,5,4,큼,NA,NA,NULL,NA,NA,NA
1,5,1,memory,kr,6,5,보,NA,NA,NULL,NA,NA,NA
1,5,1,updating,kr,1,2,르,까,NA,NULL,NA,NA,yes
1,5,1,updating,kr,2,3,꾸,뿌,NA,NULL,NA,NA,yes
1,5,1,updating,kr,3,4,큼,뜻,NA,NULL,NA,NA,yes
1,5,1,retrieval,kr,1,0,효,효,휴;위;문;조;음;았,효,TRUE,2834.60000000149,no
1,5,1,retrieval,kr,2,5,보,보,휴;위;문;조;음;았,큼,FALSE,4574.60000000149,no
1,5,1,retrieval,kr,3,4,큼,뜻,휴;위;문;조;음;았,뜻,TRUE,3042.89999999851,yes
1,5,1,retrieval,kr,4,2,르,까,휴;위;문;조;음;았,까,TRUE,6332.29999999702,yes
1,5,1,retrieval,kr,5,1,표,표,휴;위;문;조;음;았,표,TRUE,2148.89999999851,no
1,5,1,retrieval,kr,6,3,꾸,뿌,휴;위;문;조;음;았,뿌,TRUE,1148.2999999970198,yes
1,5,2,memory,kr,1,0,르,NA,NA,NULL,NA,NA,NA
1,5,2,memory,kr,2,1,조,NA,NA,NULL,NA,NA,NA
1,5,2,memory,kr,3,2,문,NA,NA,NULL,NA,NA,NA
1,5,2,memory,kr,4,3,뿌,NA,NA,NULL,NA,NA,NA
1,5,2,memory,kr,5,4,휴,NA,NA,NULL,NA,NA,NA
1,5,2,memory,kr,6,5,뜻,NA,NA,NULL,NA,NA,NA
1,5,2,updating,kr,1,0,르,보,NA,NULL,NA,NA,yes
1,5,2,updating,kr,2,1,조,았,NA,NULL,NA,NA,yes
1,5,2,updating,kr,3,5,뜻,음,NA,NULL,NA,NA,yes
1,5,2,retrieval,kr,1,4,휴,휴,꾸;효;큼;위;표;까,뜻,FALSE,4742.19999999553,no
1,5,2,retrieval,kr,2,5,뜻,음,꾸;효;큼;위;표;까,음,TRUE,3203.5,yes
1,5,2,retrieval,kr,3,0,르,보,꾸;효;큼;위;표;까,보,TRUE,2063.5,yes
1,5,2,retrieval,kr,4,3,뿌,뿌,꾸;효;큼;위;표;까,휴,FALSE,3455.4000000059605,no
1,5,2,retrieval,kr,5,2,문,문,꾸;효;큼;위;표;까,문,TRUE,2515.39999999851,no
1,5,2,retrieval,kr,6,1,조,았,꾸;효;큼;위;표;까,았,TRUE,3387.2999999970198,yes
1,5,3,memory,kr,1,0,꾸,NA,NA,NULL,NA,NA,NA
1,5,3,memory,kr,2,1,르,NA,NA,NULL,NA,NA,NA
1,5,3,memory,kr,3,2,뿌,NA,NA,NULL,NA,NA,NA
1,5,3,memory,kr,4,3,조,NA,NA,NULL,NA,NA,NA
1,5,3,memory,kr,5,4,휴,NA,NA,NULL,NA,NA,NA
1,5,3,memory,kr,6,5,효,NA,NA,NULL,NA,NA,NA
1,5,3,updating,kr,1,4,휴,뜻,NA,NULL,NA,NA,yes
1,5,3,updating,kr,2,0,꾸,까,NA,NULL,NA,NA,yes
1,5,3,updating,kr,3,5,효,았,NA,NULL,NA,NA,yes
1,5,3,retrieval,kr,1,4,휴,뜻,표;음;큼;보;위;문,뜻,TRUE,5791.89999999851,yes
1,5,3,retrieval,kr,2,1,르,르,표;음;큼;보;위;문,르,TRUE,4621.79999999702,no
1,5,3,retrieval,kr,3,5,효,았,표;음;큼;보;위;문,았,TRUE,5299.70000000298,yes
1,5,3,retrieval,kr,4,0,꾸,까,표;음;큼;보;위;문,뿌,FALSE,8812.60000000149,yes
1,5,3,retrieval,kr,5,2,뿌,뿌,표;음;큼;보;위;문,뿌,TRUE,8049.10000000149,no
1,5,3,retrieval,kr,6,3,조,조,표;음;큼;보;위;문,뜻,FALSE,2930.7999999970198,no
1,5,4,memory,kr,1,0,뿌,NA,NA,NULL,NA,NA,NA
1,5,4,memory,kr,2,1,조,NA,NA,NULL,NA,NA,NA
1,5,4,memory,kr,3,2,꾸,NA,NA,NULL,NA,NA,NA
1,5,4,memory,kr,4,3,르,NA,NA,NULL,NA,NA,NA
1,5,4,memory,kr,5,4,까,NA,NA,NULL,NA,NA,NA
1,5,4,memory,kr,6,5,보,NA,NA,NULL,NA,NA,NA
1,5,4,updating,kr,1,0,뿌,았,NA,NULL,NA,NA,yes
1,5,4,updating,kr,2,1,조,효,NA,NULL,NA,NA,yes
1,5,4,updating,kr,3,5,보,휴,NA,NULL,NA,NA,yes
1,5,4,retrieval,kr,1,4,까,까,뜻;위;문;큼;음;표,꾸,FALSE,4446.79999999702,no
1,5,4,retrieval,kr,2,1,조,효,뜻;위;문;큼;음;표,효,TRUE,3962.7999999970198,yes
1,5,4,retrieval,kr,3,2,꾸,꾸,뜻;위;문;큼;음;표,꾸,TRUE,4570.70000000298,no
1,5,4,retrieval,kr,4,3,르,르,뜻;위;문;큼;음;표,르,TRUE,2222.1999999955297,no
1,5,4,retrieval,kr,5,0,뿌,았,뜻;위;문;큼;음;표,았,TRUE,5548.39999999851,yes
1,5,4,retrieval,kr,6,5,보,휴,뜻;위;문;큼;음;표,휴,TRUE,2772.60000000149,yes
1,5,5,memory,kr,1,0,보,NA,NA,NULL,NA,NA,NA
1,5,5,memory,kr,2,1,조,NA,NA,NULL,NA,NA,NA
1,5,5,memory,kr,3,2,효,NA,NA,NULL,NA,NA,NA
1,5,5,memory,kr,4,3,큼,NA,NA,NULL,NA,NA,NA
1,5,5,memory,kr,5,4,까,NA,NA,NULL,NA,NA,NA
1,5,5,memory,kr,6,5,뿌,NA,NA,NULL,NA,NA,NA
1,5,5,updating,kr,1,1,조,표,NA,NULL,NA,NA,yes
1,5,5,updating,kr,2,5,뿌,음,NA,NULL,NA,NA,yes
1,5,5,updating,kr,3,2,효,문,NA,NULL,NA,NA,yes
1,5,5,retrieval,kr,1,3,큼,큼,았;위;휴;르;뜻;꾸,큼,TRUE,2869.5,no
1,5,5,retrieval,kr,2,1,조,표,았;위;휴;르;뜻;꾸,까,FALSE,6614.5,yes
1,5,5,retrieval,kr,3,2,효,문,았;위;휴;르;뜻;꾸,휴,FALSE,4074.7999999970198,yes
1,5,5,retrieval,kr,4,5,뿌,음,았;위;휴;르;뜻;꾸,음,TRUE,3685,yes
1,5,5,retrieval,kr,5,0,보,보,았;위;휴;르;뜻;꾸,보,TRUE,2153.60000000149,no
1,5,5,retrieval,kr,6,4,까,까,았;위;휴;르;뜻;꾸,큼,FALSE,1161.8999999985099,no
1,5,6,memory,kr,1,0,큼,NA,NA,NULL,NA,NA,NA
1,5,6,memory,kr,2,1,문,NA,NA,NULL,NA,NA,NA
1,5,6,memory,kr,3,2,뿌,NA,NA,NULL,NA,NA,NA
1,5,6,memory,kr,4,3,효,NA,NA,NULL,NA,NA,NA
1,5,6,memory,kr,5,4,표,NA,NA,NULL,NA,NA,NA
1,5,6,memory,kr,6,5,르,NA,NA,NULL,NA,NA,NA
1,5,6,updating,kr,1,3,효,보,NA,NULL,NA,NA,yes
1,5,6,updating,kr,2,1,문,조,NA,NULL,NA,NA,yes
1,5,6,updating,kr,3,4,표,꾸,NA,NULL,NA,NA,yes
1,5,6,retrieval,kr,1,5,르,르,위;까;음;휴;뜻;았,르,TRUE,2090.39999999851,no
1,5,6,retrieval,kr,2,3,효,보,위;까;음;휴;뜻;았,효,FALSE,3515.10000000149,yes
1,5,6,retrieval,kr,3,2,뿌,뿌,위;까;음;휴;뜻;았,뿌,TRUE,3158.4000000059605,no
1,5,6,retrieval,kr,4,0,큼,큼,위;까;음;휴;뜻;았,큼,TRUE,4230.4000000059605,no
1,5,6,retrieval,kr,5,1,문,조,위;까;음;휴;뜻;았,조,TRUE,8839.70000000298,yes
1,5,6,retrieval,kr,6,4,표,꾸,위;까;음;휴;뜻;았,뿌,FALSE,2699.8000000044703,yes
1,5,7,memory,kr,1,0,뜻,NA,NA,NULL,NA,NA,NA
1,5,7,memory,kr,2,1,음,NA,NA,NULL,NA,NA,NA
1,5,7,memory,kr,3,2,문,NA,NA,NULL,NA,NA,NA
1,5,7,memory,kr,4,3,았,NA,NA,NULL,NA,NA,NA
1,5,7,memory,kr,5,4,꾸,NA,NA,NULL,NA,NA,NA
1,5,7,memory,kr,6,5,보,NA,NA,NULL,NA,NA,NA
1,5,7,updating,kr,1,1,음,큼,NA,NULL,NA,NA,yes
1,5,7,updating,kr,2,0,뜻,휴,NA,NULL,NA,NA,yes
1,5,7,updating,kr,3,5,보,위,NA,NULL,NA,NA,yes
1,5,7,retrieval,kr,1,0,뜻,휴,뿌;까;효;조;르;표,휴,TRUE,5032.30000000447,yes
1,5,7,retrieval,kr,2,5,보,위,뿌;까;효;조;르;표,뿌,FALSE,6643,yes
1,5,7,retrieval,kr,3,4,꾸,꾸,뿌;까;효;조;르;표,조,FALSE,6765.5,no
1,5,7,retrieval,kr,4,2,문,문,뿌;까;효;조;르;표,꾸,FALSE,1752.2999999970198,no
1,5,7,retrieval,kr,5,1,음,큼,뿌;까;효;조;르;표,음,FALSE,3811.60000000149,yes
1,5,7,retrieval,kr,6,3,았,았,뿌;까;효;조;르;표,효,FALSE,2587.89999999851,no
1,5,8,memory,kr,1,0,음,NA,NA,NULL,NA,NA,NA
1,5,8,memory,kr,2,1,았,NA,NA,NULL,NA,NA,NA
1,5,8,memory,kr,3,2,뜻,NA,NA,NULL,NA,NA,NA
1,5,8,memory,kr,4,3,조,NA,NA,NULL,NA,NA,NA
1,5,8,memory,kr,5,4,효,NA,NA,NULL,NA,NA,NA
1,5,8,memory,kr,6,5,표,NA,NA,NULL,NA,NA,NA
1,5,8,updating,kr,1,5,표,까,NA,NULL,NA,NA,yes
1,5,8,updating,kr,2,4,효,문,NA,NULL,NA,NA,yes
1,5,8,updating,kr,3,3,조,꾸,NA,NULL,NA,NA,yes
1,5,8,retrieval,kr,1,2,뜻,뜻,휴;뿌;보;큼;위;르,뜻,TRUE,2991.8000000044703,no
1,5,8,retrieval,kr,2,4,효,문,휴;뿌;보;큼;위;르,휴,FALSE,7496.80000000447,yes
1,5,8,retrieval,kr,3,5,표,까,휴;뿌;보;큼;위;르,까,TRUE,9425.89999999851,yes
1,5,8,retrieval,kr,4,0,음,음,휴;뿌;보;큼;위;르,음,TRUE,2534.3000000044703,no
1,5,8,retrieval,kr,5,1,았,았,휴;뿌;보;큼;위;르,았,TRUE,2143.2999999970198,no
1,5,8,retrieval,kr,6,3,조,꾸,휴;뿌;보;큼;위;르,큼,FALSE,1910.8000000044703,yes
3,1,1,memory,kr,1,0,큼,NA,NA,NULL,NA,NA,NA
3,1,1,memory,kr,2,1,휴,NA,NA,NULL,NA,NA,NA
3,1,1,memory,kr,3,2,까,NA,NA,NULL,NA,NA,NA
3,1,1,memory,kr,4,3,효,NA,NA,NULL,NA,NA,NA
3,1,1,memory,kr,5,4,문,NA,NA,NULL,NA,NA,NA
3,1,1,memory,kr,6,5,꾸,NA,NA,NULL,NA,NA,NA
3,1,1,updating,kr,1,4,문,위,NA,NULL,NA,NA,yes
3,1,1,updating,kr,2,2,까,았,NA,NULL,NA,NA,yes
3,1,1,updating,kr,3,3,효,보,NA,NULL,NA,NA,yes
3,1,1,retrieval,kr,1,1,휴,휴,음;르;표;뿌;뜻;조,휴,TRUE,8401.700000047684,no
3,1,1,retrieval,kr,2,5,꾸,꾸,음;르;표;뿌;뜻;조,꾸,TRUE,8280.600000143051,no
3,1,1,retrieval,kr,3,4,문,위,음;르;표;뿌;뜻;조,위,TRUE,3473,yes
3,1,1,retrieval,kr,4,3,효,보,음;르;표;뿌;뜻;조,보,TRUE,4114.400000095367,yes
3,1,1,retrieval,kr,5,2,까,았,음;르;표;뿌;뜻;조,았,TRUE,5535.299999952316,yes
3,1,1,retrieval,kr,6,0,큼,큼,음;르;표;뿌;뜻;조,큼,TRUE,6391.899999856949,no
3,1,2,memory,kr,1,0,르,NA,NA,NULL,NA,NA,NA
3,1,2,memory,kr,2,1,큼,NA,NA,NULL,NA,NA,NA
3,1,2,memory,kr,3,2,표,NA,NA,NULL,NA,NA,NA
3,1,2,memory,kr,4,3,까,NA,NA,NULL,NA,NA,NA
3,1,2,memory,kr,5,4,았,NA,NA,NULL,NA,NA,NA
3,1,2,memory,kr,6,5,휴,NA,NA,NULL,NA,NA,NA
3,1,2,updating,kr,1,3,까,효,NA,NULL,NA,NA,yes
3,1,2,updating,kr,2,0,르,문,NA,NULL,NA,NA,yes
3,1,2,updating,kr,3,4,았,꾸,NA,NULL,NA,NA,yes
3,1,2,retrieval,kr,1,4,았,꾸,보;뜻;위;뿌;조;음,꾸,TRUE,5697,yes
3,1,2,retrieval,kr,2,0,르,문,보;뜻;위;뿌;조;음,문,TRUE,5434.400000095367,yes
3,1,2,retrieval,kr,3,5,휴,휴,보;뜻;위;뿌;조;음,휴,TRUE,6748.099999904633,no
3,1,2,retrieval,kr,4,1,큼,큼,보;뜻;위;뿌;조;음,큼,TRUE,10252.700000047684,no
3,1,2,retrieval,kr,5,2,표,표,보;뜻;위;뿌;조;음,표,TRUE,13222.5,no
3,1,2,retrieval,kr,6,3,까,효,보;뜻;위;뿌;조;음,보,FALSE,9939.099999904633,yes
3,1,3,memory,kr,1,0,았,NA,NA,NULL,NA,NA,NA
3,1,3,memory,kr,2,1,문,NA,NA,NULL,NA,NA,NA
3,1,3,memory,kr,3,2,조,NA,NA,NULL,NA,NA,NA
3,1,3,memory,kr,4,3,표,NA,NA,NULL,NA,NA,NA
3,1,3,memory,kr,5,4,까,NA,NA,NULL,NA,NA,NA
3,1,3,memory,kr,6,5,꾸,NA,NA,NULL,NA,NA,NA
3,1,3,updating,kr,1,2,조,휴,NA,NULL,NA,NA,yes
3,1,3,updating,kr,2,5,꾸,보,NA,NULL,NA,NA,yes
3,1,3,updating,kr,3,1,문,뿌,NA,NULL,NA,NA,yes
3,1,3,retrieval,kr,1,0,았,았,효;위;르;음;뜻;큼,았,TRUE,8465,no
3,1,3,retrieval,kr,2,5,꾸,보,효;위;르;음;뜻;큼,보,TRUE,14337.300000190735,yes
3,1,3,retrieval,kr,3,1,문,뿌,효;위;르;음;뜻;큼,문,FALSE,8172,yes
3,1,3,retrieval,kr,4,3,표,표,효;위;르;음;뜻;큼,표,TRUE,6776.400000095367,no
3,1,3,retrieval,kr,5,4,까,까,효;위;르;음;뜻;큼,까,TRUE,16745.799999952316,no
3,1,3,retrieval,kr,6,2,조,휴,효;위;르;음;뜻;큼,휴,TRUE,4037.2000000476837,yes
3,1,4,memory,kr,1,0,휴,NA,NA,NULL,NA,NA,NA
3,1,4,memory,kr,2,1,음,NA,NA,NULL,NA,NA,NA
3,1,4,memory,kr,3,2,뿌,NA,NA,NULL,NA,NA,NA
3,1,4,memory,kr,4,3,았,NA,NA,NULL,NA,NA,NA
3,1,4,memory,kr,5,4,표,NA,NA,NULL,NA,NA,NA
3,1,4,memory,kr,6,5,큼,NA,NA,NULL,NA,NA,NA
3,1,4,updating,kr,1,0,휴,보,NA,NULL,NA,NA,yes
3,1,4,updating,kr,2,3,았,효,NA,NULL,NA,NA,yes
3,1,4,updating,kr,3,4,표,위,NA,NULL,NA,NA,yes
3,1,4,retrieval,kr,1,0,휴,보,뜻;조;꾸;르;까;문,보,TRUE,8142.599999904633,yes
3,1,4,retrieval,kr,2,2,뿌,뿌,뜻;조;꾸;르;까;문,뿌,TRUE,7463.700000047684,no
3,1,4,retrieval,kr,3,5,큼,큼,뜻;조;꾸;르;까;문,큼,TRUE,9081.700000047684,no
3,1,4,retrieval,kr,4,1,음,음,뜻;조;꾸;르;까;문,음,TRUE,9337.400000095367,no
3,1,4,retrieval,kr,5,4,표,위,뜻;조;꾸;르;까;문,표,FALSE,9620.299999952316,yes
3,1,4,retrieval,kr,6,3,았,효,뜻;조;꾸;르;까;문,효,TRUE,17165,yes
3,1,5,memory,kr,1,0,보,NA,NA,NULL,NA,NA,NA
3,1,5,memory,kr,2,1,르,NA,NA,NULL,NA,NA,NA
3,1,5,memory,kr,3,2,큼,NA,NA,NULL,NA,NA,NA
3,1,5,memory,kr,4,3,휴,NA,NA,NULL,NA,NA,NA
3,1,5,memory,kr,5,4,았,NA,NA,NULL,NA,NA,NA
3,1,5,memory,kr,6,5,까,NA,NA,NULL,NA,NA,NA
3,1,5,updating,kr,1,3,휴,뿌,NA,NULL,NA,NA,yes
3,1,5,updating,kr,2,0,보,효,NA,NULL,NA,NA,yes
3,1,5,updating,kr,3,4,았,표,NA,NULL,NA,NA,yes
3,1,5,retrieval,kr,1,3,휴,뿌,뜻;위;음;꾸;문;조,뿌,TRUE,6939.799999952316,yes
3,1,5,retrieval,kr,2,2,큼,큼,뜻;위;음;꾸;문;조,큼,TRUE,7070.599999904633,no
3,1,5,retrieval,kr,3,4,았,표,뜻;위;음;꾸;문;조,았,FALSE,5502.099999904633,yes
3,1,5,retrieval,kr,4,0,보,효,뜻;위;음;꾸;문;조,효,TRUE,7014.299999952316,yes
3,1,5,retrieval,kr,5,1,르,르,뜻;위;음;꾸;문;조,르,TRUE,8874.399999856949,no
3,1,5,retrieval,kr,6,5,까,까,뜻;위;음;꾸;문;조,큼,FALSE,6185.400000095367,no
3,1,6,memory,kr,1,0,위,NA,NA,NULL,NA,NA,NA
3,1,6,memory,kr,2,1,았,NA,NA,NULL,NA,NA,NA
3,1,6,memory,kr,3,2,효,NA,NA,NULL,NA,NA,NA
3,1,6,memory,kr,4,3,문,NA,NA,NULL,NA,NA,NA
3,1,6,memory,kr,5,4,꾸,NA,NA,NULL,NA,NA,NA
3,1,6,memory,kr,6,5,큼,NA,NA,NULL,NA,NA,NA
3,1,6,updating,kr,1,0,위,르,NA,NULL,NA,NA,yes
3,1,6,updating,kr,2,5,큼,보,NA,NULL,NA,NA,yes
3,1,6,updating,kr,3,1,았,뜻,NA,NULL,NA,NA,yes
3,1,6,retrieval,kr,1,0,위,르,음;표;까;뿌;조;휴,르,TRUE,6938.900000095367,yes
3,1,6,retrieval,kr,2,2,효,효,음;표;까;뿌;조;휴,효,TRUE,7408.899999856949,no
3,1,6,retrieval,kr,3,5,큼,보,음;표;까;뿌;조;휴,큼,FALSE,4957.699999809265,yes
3,1,6,retrieval,kr,4,4,꾸,꾸,음;표;까;뿌;조;휴,꾸,TRUE,5530.100000143051,no
3,1,6,retrieval,kr,5,1,았,뜻,음;표;까;뿌;조;휴,뜻,TRUE,9121.5,yes
3,1,6,retrieval,kr,6,3,문,문,음;표;까;뿌;조;휴,문,TRUE,10842.199999809265,no
3,1,7,memory,kr,1,0,르,NA,NA,NULL,NA,NA,NA
3,1,7,memory,kr,2,1,았,NA,NA,NULL,NA,NA,NA
3,1,7,memory,kr,3,2,조,NA,NA,NULL,NA,NA,NA
3,1,7,memory,kr,4,3,위,NA,NA,NULL,NA,NA,NA
3,1,7,memory,kr,5,4,까,NA,NA,NULL,NA,NA,NA
3,1,7,memory,kr,6,5,음,NA,NA,NULL,NA,NA,NA
3,1,7,updating,kr,1,3,위,큼,NA,NULL,NA,NA,yes
3,1,7,updating,kr,2,0,르,뜻,NA,NULL,NA,NA,yes
3,1,7,updating,kr,3,5,음,효,NA,NULL,NA,NA,yes
3,1,7,retrieval,kr,1,3,위,큼,표;보;뿌;휴;꾸;문,큼,TRUE,8099.699999809265,yes
3,1,7,retrieval,kr,2,0,르,뜻,표;보;뿌;휴;꾸;문,뜻,TRUE,5359,yes
3,1,7,retrieval,kr,3,4,까,까,표;보;뿌;휴;꾸;문,까,TRUE,8055,no
3,1,7,retrieval,kr,4,5,음,효,표;보;뿌;휴;꾸;문,음,FALSE,6306.099999904633,yes
3,1,7,retrieval,kr,5,1,았,았,표;보;뿌;휴;꾸;문,았,TRUE,10171.900000095367,no
3,1,7,retrieval,kr,6,2,조,조,표;보;뿌;휴;꾸;문,조,TRUE,3650.7999999523163,no
3,1,8,memory,kr,1,0,았,NA,NA,NULL,NA,NA,NA
3,1,8,memory,kr,2,1,조,NA,NA,NULL,NA,NA,NA
3,1,8,memory,kr,3,2,휴,NA,NA,NULL,NA,NA,NA
3,1,8,memory,kr,4,3,뜻,NA,NA,NULL,NA,NA,NA
3,1,8,memory,kr,5,4,표,NA,NA,NULL,NA,NA,NA
3,1,8,memory,kr,6,5,보,NA,NA,NULL,NA,NA,NA
3,1,8,updating,kr,1,3,뜻,큼,NA,NULL,NA,NA,yes
3,1,8,updating,kr,2,1,조,효,NA,NULL,NA,NA,yes
3,1,8,updating,kr,3,0,았,문,NA,NULL,NA,NA,yes
3,1,8,retrieval,kr,1,5,보,보,위;까;뿌;꾸;르;음,효,FALSE,5215.300000190735,no
3,1,8,retrieval,kr,2,3,뜻,큼,위;까;뿌;꾸;르;음,뜻,FALSE,8595.900000095367,yes
3,1,8,retrieval,kr,3,0,았,문,위;까;뿌;꾸;르;음,위,FALSE,2743.0999999046326,yes
3,1,8,retrieval,kr,4,2,휴,휴,위;까;뿌;꾸;르;음,문,FALSE,1398.3999998569489,no
3,1,8,retrieval,kr,5,4,표,표,위;까;뿌;꾸;르;음,조,FALSE,1022.2000000476837,no
3,1,8,retrieval,kr,6,1,조,효,위;까;뿌;꾸;르;음,음,FALSE,1139.9000000953674,yes
3,2,1,memory,kr,1,0,위,NA,NA,NULL,NA,NA,NA
3,2,1,memory,kr,2,1,뿌,NA,NA,NULL,NA,NA,NA
3,2,1,memory,kr,3,2,음,NA,NA,NULL,NA,NA,NA
3,2,1,memory,kr,4,3,뜻,NA,NA,NULL,NA,NA,NA
3,2,1,memory,kr,5,4,르,NA,NA,NULL,NA,NA,NA
3,2,1,memory,kr,6,5,보,NA,NA,NULL,NA,NA,NA
3,2,1,updating,kr,1,5,보,효,NA,NULL,NA,NA,yes
3,2,1,updating,kr,2,1,뿌,꾸,NA,NULL,NA,NA,yes
3,2,1,updating,kr,3,3,뜻,큼,NA,NULL,NA,NA,yes
3,2,1,retrieval,kr,1,5,보,효,휴;문;까;표;조;았,효,TRUE,7036.599999904633,yes
3,2,1,retrieval,kr,2,1,뿌,꾸,휴;문;까;표;조;았,꾸,TRUE,4339.5,yes
3,2,1,retrieval,kr,3,2,음,음,휴;문;까;표;조;았,음,TRUE,7007.300000190735,no
3,2,1,retrieval,kr,4,0,위,위,휴;문;까;표;조;았,위,TRUE,4437.700000047684,no
3,2,1,retrieval,kr,5,4,르,르,휴;문;까;표;조;았,르,TRUE,10922.700000047684,no
3,2,1,retrieval,kr,6,3,뜻,큼,휴;문;까;표;조;았,큼,TRUE,8240,yes
3,2,2,memory,kr,1,0,문,NA,NA,NULL,NA,NA,NA
3,2,2,memory,kr,2,1,표,NA,NA,NULL,NA,NA,NA
3,2,2,memory,kr,3,2,큼,NA,NA,NULL,NA,NA,NA
3,2,2,memory,kr,4,3,효,NA,NA,NULL,NA,NA,NA
3,2,2,memory,kr,5,4,위,NA,NA,NULL,NA,NA,NA
3,2,2,memory,kr,6,5,휴,NA,NA,NULL,NA,NA,NA
3,2,2,updating,kr,1,5,휴,조,NA,NULL,NA,NA,yes
3,2,2,updating,kr,2,2,큼,았,NA,NULL,NA,NA,yes
3,2,2,updating,kr,3,4,위,뜻,NA,NULL,NA,NA,yes
3,2,2,retrieval,kr,1,1,표,표,뿌;보;꾸;음;르;까,표,TRUE,12542.299999952316,no
3,2,2,retrieval,kr,2,4,위,뜻,뿌;보;꾸;음;르;까,위,FALSE,9689.200000047684,yes
3,2,2,retrieval,kr,3,0,문,문,뿌;보;꾸;음;르;까,문,TRUE,15270.5,no
3,2,2,retrieval,kr,4,5,휴,조,뿌;보;꾸;음;르;까,조,TRUE,8443.599999904633,yes
3,2,2,retrieval,kr,5,3,효,효,뿌;보;꾸;음;르;까,효,TRUE,9797.5,no
3,2,2,retrieval,kr,6,2,큼,았,뿌;보;꾸;음;르;까,큼,FALSE,4269.200000047684,yes
3,2,3,memory,kr,1,0,뜻,NA,NA,NULL,NA,NA,NA
3,2,3,memory,kr,2,1,르,NA,NA,NULL,NA,NA,NA
3,2,3,memory,kr,3,2,까,NA,NA,NULL,NA,NA,NA
3,2,3,memory,kr,4,3,았,NA,NA,NULL,NA,NA,NA
3,2,3,memory,kr,5,4,표,NA,NA,NULL,NA,NA,NA
3,2,3,memory,kr,6,5,조,NA,NA,NULL,NA,NA,NA
3,2,3,updating,kr,1,4,표,효,NA,NULL,NA,NA,yes
3,2,3,updating,kr,2,2,까,보,NA,NULL,NA,NA,yes
3,2,3,updating,kr,3,3,았,큼,NA,NULL,NA,NA,yes
3,2,3,retrieval,kr,1,4,표,효,문;뿌;꾸;휴;위;음,효,TRUE,5366.199999809265,yes
3,2,3,retrieval,kr,2,3,았,큼,문;뿌;꾸;휴;위;음,효,FALSE,1800.0999999046326,yes
3,2,3,retrieval,kr,3,0,뜻,뜻,문;뿌;꾸;휴;위;음,뜻,TRUE,10912.399999856949,no
3,2,3,retrieval,kr,4,2,까,보,문;뿌;꾸;휴;위;음,보,TRUE,11191.900000095367,yes
3,2,3,retrieval,kr,5,5,조,조,문;뿌;꾸;휴;위;음,조,TRUE,8742.5,no
3,2,3,retrieval,kr,6,1,르,르,문;뿌;꾸;휴;위;음,르,TRUE,8183,no
3,2,4,memory,kr,1,0,뜻,NA,NA,NULL,NA,NA,NA
3,2,4,memory,kr,2,1,르,NA,NA,NULL,NA,NA,NA
3,2,4,memory,kr,3,2,보,NA,NA,NULL,NA,NA,NA
3,2,4,memory,kr,4,3,꾸,NA,NA,NULL,NA,NA,NA
3,2,4,memory,kr,5,4,조,NA,NA,NULL,NA,NA,NA
3,2,4,memory,kr,6,5,큼,NA,NA,NULL,NA,NA,NA
3,2,4,updating,kr,1,2,보,효,NA,NULL,NA,NA,yes
3,2,4,updating,kr,2,1,르,음,NA,NULL,NA,NA,yes
3,2,4,updating,kr,3,5,큼,문,NA,NULL,NA,NA,yes
3,2,4,retrieval,kr,1,5,큼,문,표;뿌;까;휴;위;았,문,TRUE,4148.200000047684,yes
3,2,4,retrieval,kr,2,0,뜻,뜻,표;뿌;까;휴;위;았,뜻,TRUE,5476.400000095367,no
3,2,4,retrieval,kr,3,2,보,효,표;뿌;까;휴;위;았,효,TRUE,5677.400000095367,yes
3,2,4,retrieval,kr,4,1,르,음,표;뿌;까;휴;위;았,음,TRUE,4132.599999904633,yes
3,2,4,retrieval,kr,5,3,꾸,꾸,표;뿌;까;휴;위;았,꾸,TRUE,4276,no
3,2,4,retrieval,kr,6,4,조,조,표;뿌;까;휴;위;았,조,TRUE,4680,no
3,2,5,memory,kr,1,0,효,NA,NA,NULL,NA,NA,NA
3,2,5,memory,kr,2,1,뜻,NA,NA,NULL,NA,NA,NA
3,2,5,memory,kr,3,2,았,NA,NA,NULL,NA,NA,NA
3,2,5,memory,kr,4,3,꾸,NA,NA,NULL,NA,NA,NA
3,2,5,memory,kr,5,4,휴,NA,NA,NULL,NA,NA,NA
3,2,5,memory,kr,6,5,음,NA,NA,NULL,NA,NA,NA
3,2,5,updating,kr,1,5,음,르,NA,NULL,NA,NA,yes
3,2,5,updating,kr,2,1,뜻,위,NA,NULL,NA,NA,yes
3,2,5,updating,kr,3,2,았,뿌,NA,NULL,NA,NA,yes
3,2,5,retrieval,kr,1,2,았,뿌,까;보;문;큼;표;조,뿌,TRUE,9050.299999952316,yes
3,2,5,retrieval,kr,2,5,음,르,까;보;문;큼;표;조,르,TRUE,6539.399999856949,yes
3,2,5,retrieval,kr,3,1,뜻,위,까;보;문;큼;표;조,위,TRUE,6201.5,yes
3,2,5,retrieval,kr,4,3,꾸,꾸,까;보;문;큼;표;조,꾸,TRUE,5251.600000143051,no
3,2,5,retrieval,kr,5,0,효,효,까;보;문;큼;표;조,효,TRUE,7946.299999952316,no
3,2,5,retrieval,kr,6,4,휴,휴,까;보;문;큼;표;조,휴,TRUE,3870.100000143051,no
3,2,6,memory,kr,1,0,휴,NA,NA,NULL,NA,NA,NA
3,2,6,memory,kr,2,1,표,NA,NA,NULL,NA,NA,NA
3,2,6,memory,kr,3,2,효,NA,NA,NULL,NA,NA,NA
3,2,6,memory,kr,4,3,위,NA,NA,NULL,NA,NA,NA
3,2,6,memory,kr,5,4,까,NA,NA,NULL,NA,NA,NA
3,2,6,memory,kr,6,5,뜻,NA,NA,NULL,NA,NA,NA
3,2,6,updating,kr,1,4,까,보,NA,NULL,NA,NA,yes
3,2,6,updating,kr,2,0,휴,음,NA,NULL,NA,NA,yes
3,2,6,updating,kr,3,2,효,문,NA,NULL,NA,NA,yes
3,2,6,retrieval,kr,1,3,위,위,뿌;꾸;큼;았;조;르,위,TRUE,6250.5,no
3,2,6,retrieval,kr,2,0,휴,음,뿌;꾸;큼;았;조;르,음,TRUE,2759.0999999046326,yes
3,2,6,retrieval,kr,3,4,까,보,뿌;꾸;큼;았;조;르,조,FALSE,9118.100000143051,yes
3,2,6,retrieval,kr,4,1,표,표,뿌;꾸;큼;았;조;르,표,TRUE,4829.100000143051,no
3,2,6,retrieval,kr,5,5,뜻,뜻,뿌;꾸;큼;았;조;르,NULL,FALSE,NA,no
3,2,6,retrieval,kr,6,2,효,문,뿌;꾸;큼;았;조;르,문,TRUE,4561.300000190735,yes
3,2,7,memory,kr,1,0,뿌,NA,NA,NULL,NA,NA,NA
3,2,7,memory,kr,2,1,표,NA,NA,NULL,NA,NA,NA
3,2,7,memory,kr,3,2,문,NA,NA,NULL,NA,NA,NA
3,2,7,memory,kr,4,3,위,NA,NA,NULL,NA,NA,NA
3,2,7,memory,kr,5,4,큼,NA,NA,NULL,NA,NA,NA
3,2,7,memory,kr,6,5,꾸,NA,NA,NULL,NA,NA,NA
3,2,7,updating,kr,1,1,표,조,NA,NULL,NA,NA,yes
3,2,7,updating,kr,2,2,문,효,NA,NULL,NA,NA,yes
3,2,7,updating,kr,3,0,뿌,보,NA,NULL,NA,NA,yes
3,2,7,retrieval,kr,1,4,큼,큼,음;르;까;뜻;휴;았,큼,TRUE,5871.200000047684,no
3,2,7,retrieval,kr,2,2,문,효,음;르;까;뜻;휴;았,효,TRUE,7076.199999809265,yes
3,2,7,retrieval,kr,3,5,꾸,꾸,음;르;까;뜻;휴;았,꾸,TRUE,3756.100000143051,no
3,2,7,retrieval,kr,4,1,표,조,음;르;까;뜻;휴;았,조,TRUE,2942,yes
3,2,7,retrieval,kr,5,3,위,위,음;르;까;뜻;휴;았,위,TRUE,3734.2000000476837,no
3,2,7,retrieval,kr,6,0,뿌,보,음;르;까;뜻;휴;았,뿌,FALSE,5510.700000047684,yes
3,2,8,memory,kr,1,0,표,NA,NA,NULL,NA,NA,NA
3,2,8,memory,kr,2,1,휴,NA,NA,NULL,NA,NA,NA
3,2,8,memory,kr,3,2,았,NA,NA,NULL,NA,NA,NA
3,2,8,memory,kr,4,3,문,NA,NA,NULL,NA,NA,NA
3,2,8,memory,kr,5,4,까,NA,NA,NULL,NA,NA,NA
3,2,8,memory,kr,6,5,뿌,NA,NA,NULL,NA,NA,NA
3,2,8,updating,kr,1,4,까,뜻,NA,NULL,NA,NA,yes
3,2,8,updating,kr,2,0,표,르,NA,NULL,NA,NA,yes
3,2,8,updating,kr,3,2,았,음,NA,NULL,NA,NA,yes
3,2,8,retrieval,kr,1,5,뿌,뿌,효;위;조;꾸;큼;보,뿌,TRUE,6724.799999952316,no
3,2,8,retrieval,kr,2,4,까,뜻,효;위;조;꾸;큼;보,뜻,TRUE,4641.5,yes
3,2,8,retrieval,kr,3,0,표,르,효;위;조;꾸;큼;보,뜻,FALSE,14480.799999952316,yes
3,2,8,retrieval,kr,4,2,았,음,효;위;조;꾸;큼;보,았,FALSE,2830.0999999046326,yes
3,2,8,retrieval,kr,5,1,휴,휴,효;위;조;꾸;큼;보,휴,TRUE,3260.2999999523163,no
3,2,8,retrieval,kr,6,3,문,문,효;위;조;꾸;큼;보,문,TRUE,6243.399999856949,no
3,3,1,memory,kr,1,0,표,NA,NA,NULL,NA,NA,NA
3,3,1,memory,kr,2,1,뿌,NA,NA,NULL,NA,NA,NA
3,3,1,memory,kr,3,2,꾸,NA,NA,NULL,NA,NA,NA
3,3,1,memory,kr,4,3,보,NA,NA,NULL,NA,NA,NA
3,3,1,memory,kr,5,4,음,NA,NA,NULL,NA,NA,NA
3,3,1,memory,kr,6,5,문,NA,NA,NULL,NA,NA,NA
3,3,1,updating,kr,1,2,꾸,큼,NA,NULL,NA,NA,yes
3,3,1,updating,kr,2,3,보,까,NA,NULL,NA,NA,yes
3,3,1,updating,kr,3,4,음,르,NA,NULL,NA,NA,yes
3,3,1,retrieval,kr,1,2,꾸,큼,았;위;휴;조;효;뜻,큼,TRUE,9879.700000047684,yes
3,3,1,retrieval,kr,2,4,음,르,았;위;휴;조;효;뜻,르,TRUE,6961.200000047684,yes
3,3,1,retrieval,kr,3,1,뿌,뿌,았;위;휴;조;효;뜻,뿌,TRUE,3610.600000143051,no
3,3,1,retrieval,kr,4,3,보,까,았;위;휴;조;효;뜻,까,TRUE,4199.099999904633,yes
3,3,1,retrieval,kr,5,5,문,문,았;위;휴;조;효;뜻,문,TRUE,2914,no
3,3,1,retrieval,kr,6,0,표,표,았;위;휴;조;효;뜻,표,TRUE,2652.7999999523163,no
3,3,2,memory,kr,1,0,표,NA,NA,NULL,NA,NA,NA
3,3,2,memory,kr,2,1,음,NA,NA,NULL,NA,NA,NA
3,3,2,memory,kr,3,2,까,NA,NA,NULL,NA,NA,NA
3,3,2,memory,kr,4,3,았,NA,NA,NULL,NA,NA,NA
3,3,2,memory,kr,5,4,뜻,NA,NA,NULL,NA,NA,NA
3,3,2,memory,kr,6,5,문,NA,NA,NULL,NA,NA,NA
3,3,2,updating,kr,1,2,까,큼,NA,NULL,NA,NA,yes
3,3,2,updating,kr,2,3,았,효,NA,NULL,NA,NA,yes
3,3,2,updating,kr,3,5,문,휴,NA,NULL,NA,NA,yes
3,3,2,retrieval,kr,1,5,문,휴,위;르;꾸;조;보;뿌,휴,TRUE,6880.200000047684,yes
3,3,2,retrieval,kr,2,1,음,음,위;르;꾸;조;보;뿌,음,TRUE,3221.5,no
3,3,2,retrieval,kr,3,0,표,표,위;르;꾸;조;보;뿌,표,TRUE,3389.5,no
3,3,2,retrieval,kr,4,2,까,큼,위;르;꾸;조;보;뿌,큼,TRUE,4804.200000047684,yes
3,3,2,retrieval,kr,5,3,았,효,위;르;꾸;조;보;뿌,효,TRUE,2706.7999999523163,yes
3,3,2,retrieval,kr,6,4,뜻,뜻,위;르;꾸;조;보;뿌,뜻,TRUE,4366.700000047684,no
3,3,3,memory,kr,1,0,효,NA,NA,NULL,NA,NA,NA
3,3,3,memory,kr,2,1,꾸,NA,NA,NULL,NA,NA,NA
3,3,3,memory,kr,3,2,보,NA,NA,NULL,NA,NA,NA
3,3,3,memory,kr,4,3,위,NA,NA,NULL,NA,NA,NA
3,3,3,memory,kr,5,4,조,NA,NA,NULL,NA,NA,NA
3,3,3,memory,kr,6,5,문,NA,NA,NULL,NA,NA,NA
3,3,3,updating,kr,1,3,위,음,NA,NULL,NA,NA,yes
3,3,3,updating,kr,2,5,문,뜻,NA,NULL,NA,NA,yes
3,3,3,updating,kr,3,4,조,큼,NA,NULL,NA,NA,yes
3,3,3,retrieval,kr,1,5,문,뜻,까;뿌;휴;르;았;표,뜻,TRUE,16011.400000095367,yes
3,3,3,retrieval,kr,2,3,위,음,까;뿌;휴;르;았;표,음,TRUE,3006.5999999046326,yes
3,3,3,retrieval,kr,3,2,보,보,까;뿌;휴;르;았;표,보,TRUE,4759.400000095367,no
3,3,3,retrieval,kr,4,1,꾸,꾸,까;뿌;휴;르;았;표,꾸,TRUE,3505.5,no
3,3,3,retrieval,kr,5,4,조,큼,까;뿌;휴;르;았;표,큼,TRUE,9279.600000143051,yes
3,3,3,retrieval,kr,6,0,효,효,까;뿌;휴;르;았;표,효,TRUE,3599.7999999523163,no
3,3,4,memory,kr,1,0,위,NA,NA,NULL,NA,NA,NA
3,3,4,memory,kr,2,1,표,NA,NA,NULL,NA,NA,NA
3,3,4,memory,kr,3,2,뿌,NA,NA,NULL,NA,NA,NA
3,3,4,memory,kr,4,3,았,NA,NA,NULL,NA,NA,NA
3,3,4,memory,kr,5,4,뜻,NA,NA,NULL,NA,NA,NA
3,3,4,memory,kr,6,5,르,NA,NA,NULL,NA,NA,NA
3,3,4,updating,kr,1,2,뿌,효,NA,NULL,NA,NA,yes
3,3,4,updating,kr,2,0,위,휴,NA,NULL,NA,NA,yes
3,3,4,updating,kr,3,3,았,조,NA,NULL,NA,NA,yes
3,3,4,retrieval,kr,1,0,위,휴,까;보;꾸;큼;문;음,휴,TRUE,5085.200000047684,yes
3,3,4,retrieval,kr,2,3,았,조,까;보;꾸;큼;문;음,조,TRUE,4292,yes
3,3,4,retrieval,kr,3,5,르,르,까;보;꾸;큼;문;음,르,TRUE,3495.7000000476837,no
3,3,4,retrieval,kr,4,1,표,표,까;보;꾸;큼;문;음,표,TRUE,2846.7000000476837,no
3,3,4,retrieval,kr,5,4,뜻,뜻,까;보;꾸;큼;문;음,뜻,TRUE,7933,no
3,3,4,retrieval,kr,6,2,뿌,효,까;보;꾸;큼;문;음,효,TRUE,4011.5999999046326,yes
3,3,5,memory,kr,1,0,효,NA,NA,NULL,NA,NA,NA
3,3,5,memory,kr,2,1,았,NA,NA,NULL,NA,NA,NA
3,3,5,memory,kr,3,2,까,NA,NA,NULL,NA,NA,NA
3,3,5,memory,kr,4,3,르,NA,NA,NULL,NA,NA,NA
3,3,5,memory,kr,5,4,문,NA,NA,NULL,NA,NA,NA
3,3,5,memory,kr,6,5,뿌,NA,NA,NULL,NA,NA,NA
3,3,5,updating,kr,1,0,효,꾸,NA,NULL,NA,NA,yes
3,3,5,updating,kr,2,4,문,표,NA,NULL,NA,NA,yes
3,3,5,updating,kr,3,3,르,뜻,NA,NULL,NA,NA,yes
3,3,5,retrieval,kr,1,0,효,꾸,큼;조;보;휴;위;음,꾸,TRUE,3326.5,yes
3,3,5,retrieval,kr,2,3,르,뜻,큼;조;보;휴;위;음,뜻,TRUE,12323.899999856949,yes
3,3,5,retrieval,kr,3,5,뿌,뿌,큼;조;보;휴;위;음,뿌,TRUE,4093.899999856949,no
3,3,5,retrieval,kr,4,4,문,표,큼;조;보;휴;위;음,표,TRUE,3522.4000000953674,yes
3,3,5,retrieval,kr,5,2,까,까,큼;조;보;휴;위;음,까,TRUE,3105.899999856949,no
3,3,5,retrieval,kr,6,1,았,았,큼;조;보;휴;위;음,았,TRUE,4180.600000143051,no
3,3,6,memory,kr,1,0,까,NA,NA,NULL,NA,NA,NA
3,3,6,memory,kr,2,1,위,NA,NA,NULL,NA,NA,NA
3,3,6,memory,kr,3,2,꾸,NA,NA,NULL,NA,NA,NA
3,3,6,memory,kr,4,3,문,NA,NA,NULL,NA,NA,NA
3,3,6,memory,kr,5,4,효,NA,NA,NULL,NA,NA,NA
3,3,6,memory,kr,6,5,았,NA,NA,NULL,NA,NA,NA
3,3,6,updating,kr,1,3,문,뿌,NA,NULL,NA,NA,yes
3,3,6,updating,kr,2,1,위,휴,NA,NULL,NA,NA,yes
3,3,6,updating,kr,3,2,꾸,음,NA,NULL,NA,NA,yes
3,3,6,retrieval,kr,1,0,까,까,표;뜻;르;큼;보;조,까,TRUE,4135.900000095367,no
3,3,6,retrieval,kr,2,2,꾸,음,표;뜻;르;큼;보;조,음,TRUE,3344.5,yes
3,3,6,retrieval,kr,3,3,문,뿌,표;뜻;르;큼;보;조,뿌,TRUE,3101.0999999046326,yes
3,3,6,retrieval,kr,4,4,효,효,표;뜻;르;큼;보;조,효,TRUE,5537.600000143051,no
3,3,6,retrieval,kr,5,1,위,휴,표;뜻;르;큼;보;조,휴,TRUE,3719.899999856949,yes
3,3,6,retrieval,kr,6,5,았,았,표;뜻;르;큼;보;조,았,TRUE,4485.899999856949,no
3,3,7,memory,kr,1,0,표,NA,NA,NULL,NA,NA,NA
3,3,7,memory,kr,2,1,큼,NA,NA,NULL,NA,NA,NA
3,3,7,memory,kr,3,2,꾸,NA,NA,NULL,NA,NA,NA
3,3,7,memory,kr,4,3,조,NA,NA,NULL,NA,NA,NA
3,3,7,memory,kr,5,4,효,NA,NA,NULL,NA,NA,NA
3,3,7,memory,kr,6,5,보,NA,NA,NULL,NA,NA,NA
3,3,7,updating,kr,1,4,효,르,NA,NULL,NA,NA,yes
3,3,7,updating,kr,2,1,큼,뜻,NA,NULL,NA,NA,yes
3,3,7,updating,kr,3,5,보,휴,NA,NULL,NA,NA,yes
3,3,7,retrieval,kr,1,3,조,조,문;았;뿌;까;위;음,조,TRUE,4478.599999904633,no
3,3,7,retrieval,kr,2,5,보,휴,문;았;뿌;까;위;음,휴,TRUE,2575.5999999046326,yes
3,3,7,retrieval,kr,3,4,효,르,문;았;뿌;까;위;음,르,TRUE,3375.4000000953674,yes
3,3,7,retrieval,kr,4,2,꾸,꾸,문;았;뿌;까;위;음,꾸,TRUE,4016.5999999046326,no
3,3,7,retrieval,kr,5,1,큼,뜻,문;았;뿌;까;위;음,뜻,TRUE,8492.199999809265,yes
3,3,7,retrieval,kr,6,0,표,표,문;았;뿌;까;위;음,표,TRUE,3462.399999856949,no
3,3,8,memory,kr,1,0,효,NA,NA,NULL,NA,NA,NA
3,3,8,memory,kr,2,1,표,NA,NA,NULL,NA,NA,NA
3,3,8,memory,kr,3,2,조,NA,NA,NULL,NA,NA,NA
3,3,8,memory,kr,4,3,음,NA,NA,NULL,NA,NA,NA
3,3,8,memory,kr,5,4,문,NA,NA,NULL,NA,NA,NA
3,3,8,memory,kr,6,5,휴,NA,NA,NULL,NA,NA,NA
3,3,8,updating,kr,1,5,휴,뿌,NA,NULL,NA,NA,yes
3,3,8,updating,kr,2,1,표,뜻,NA,NULL,NA,NA,yes
3,3,8,updating,kr,3,4,문,위,NA,NULL,NA,NA,yes
3,3,8,retrieval,kr,1,1,표,뜻,큼;꾸;보;까;르;았,뜻,TRUE,3499.4000000953674,yes
3,3,8,retrieval,kr,2,3,음,음,큼;꾸;보;까;르;았,음,TRUE,2884.800000190735,no
3,3,8,retrieval,kr,3,4,문,위,큼;꾸;보;까;르;았,위,TRUE,4091.7000000476837,yes
3,3,8,retrieval,kr,4,0,효,효,큼;꾸;보;까;르;았,효,TRUE,5516.399999856949,no
3,3,8,retrieval,kr,5,2,조,조,큼;꾸;보;까;르;았,조,TRUE,2724.2000000476837,no
3,3,8,retrieval,kr,6,5,휴,뿌,큼;꾸;보;까;르;았,뿌,TRUE,2913.0999999046326,yes
3,4,1,memory,kr,1,0,효,NA,NA,NULL,NA,NA,NA
3,4,1,memory,kr,2,1,음,NA,NA,NULL,NA,NA,NA
3,4,1,memory,kr,3,2,큼,NA,NA,NULL,NA,NA,NA
3,4,1,memory,kr,4,3,위,NA,NA,NULL,NA,NA,NA
3,4,1,memory,kr,5,4,표,NA,NA,NULL,NA,NA,NA
3,4,1,memory,kr,6,5,조,NA,NA,NULL,NA,NA,NA
3,4,1,updating,kr,1,3,위,뜻,NA,NULL,NA,NA,yes
3,4,1,updating,kr,2,2,큼,보,NA,NULL,NA,NA,yes
3,4,1,updating,kr,3,1,음,휴,NA,NULL,NA,NA,yes
3,4,1,retrieval,kr,1,5,조,조,까;꾸;뿌;문;르;았,조,TRUE,3146.300000190735,no
3,4,1,retrieval,kr,2,3,위,뜻,까;꾸;뿌;문;르;았,뜻,TRUE,9369.400000095367,yes
3,4,1,retrieval,kr,3,0,효,효,까;꾸;뿌;문;르;았,효,TRUE,4053.399999856949,no
3,4,1,retrieval,kr,4,4,표,표,까;꾸;뿌;문;르;았,표,TRUE,3354.100000143051,no
3,4,1,retrieval,kr,5,1,음,휴,까;꾸;뿌;문;르;았,휴,TRUE,3345.7000000476837,yes
3,4,1,retrieval,kr,6,2,큼,보,까;꾸;뿌;문;르;았,보,TRUE,5750.700000047684,yes
3,4,2,memory,kr,1,0,조,NA,NA,NULL,NA,NA,NA
3,4,2,memory,kr,2,1,휴,NA,NA,NULL,NA,NA,NA
3,4,2,memory,kr,3,2,위,NA,NA,NULL,NA,NA,NA
3,4,2,memory,kr,4,3,큼,NA,NA,NULL,NA,NA,NA
3,4,2,memory,kr,5,4,뿌,NA,NA,NULL,NA,NA,NA
3,4,2,memory,kr,6,5,까,NA,NA,NULL,NA,NA,NA
3,4,2,updating,kr,1,0,조,음,NA,NULL,NA,NA,yes
3,4,2,updating,kr,2,1,휴,문,NA,NULL,NA,NA,yes
3,4,2,updating,kr,3,3,큼,뜻,NA,NULL,NA,NA,yes
3,4,2,retrieval,kr,1,4,뿌,뿌,보;르;효;표;꾸;았,뿌,TRUE,4987,no
3,4,2,retrieval,kr,2,2,위,위,보;르;효;표;꾸;았,위,TRUE,5710.600000143051,no
3,4,2,retrieval,kr,3,3,큼,뜻,보;르;효;표;꾸;았,뜻,TRUE,8182.600000143051,yes
3,4,2,retrieval,kr,4,5,까,까,보;르;효;표;꾸;았,까,TRUE,4608.200000047684,no
3,4,2,retrieval,kr,5,1,휴,문,보;르;효;표;꾸;았,문,TRUE,7415.900000095367,yes
3,4,2,retrieval,kr,6,0,조,음,보;르;효;표;꾸;았,음,TRUE,3423,yes
3,4,3,memory,kr,1,0,휴,NA,NA,NULL,NA,NA,NA
3,4,3,memory,kr,2,1,르,NA,NA,NULL,NA,NA,NA
3,4,3,memory,kr,3,2,위,NA,NA,NULL,NA,NA,NA
3,4,3,memory,kr,4,3,보,NA,NA,NULL,NA,NA,NA
3,4,3,memory,kr,5,4,꾸,NA,NA,NULL,NA,NA,NA
3,4,3,memory,kr,6,5,문,NA,NA,NULL,NA,NA,NA
3,4,3,updating,kr,1,2,위,큼,NA,NULL,NA,NA,yes
3,4,3,updating,kr,2,5,문,았,NA,NULL,NA,NA,yes
3,4,3,updating,kr,3,3,보,조,NA,NULL,NA,NA,yes
3,4,3,retrieval,kr,1,5,문,았,까;음;뜻;표;뿌;효,았,TRUE,3761.5,yes
3,4,3,retrieval,kr,2,2,위,큼,까;음;뜻;표;뿌;효,큼,TRUE,9063.799999952316,yes
3,4,3,retrieval,kr,3,1,르,르,까;음;뜻;표;뿌;효,르,TRUE,3614.9000000953674,no
3,4,3,retrieval,kr,4,0,휴,휴,까;음;뜻;표;뿌;효,휴,TRUE,2721.7999999523163,no
3,4,3,retrieval,kr,5,4,꾸,꾸,까;음;뜻;표;뿌;효,꾸,TRUE,4486.700000047684,no
3,4,3,retrieval,kr,6,3,보,조,까;음;뜻;표;뿌;효,조,TRUE,4500.200000047684,yes
3,4,4,memory,kr,1,0,뿌,NA,NA,NULL,NA,NA,NA
3,4,4,memory,kr,2,1,까,NA,NA,NULL,NA,NA,NA
3,4,4,memory,kr,3,2,르,NA,NA,NULL,NA,NA,NA
3,4,4,memory,kr,4,3,문,NA,NA,NULL,NA,NA,NA
3,4,4,memory,kr,5,4,음,NA,NA,NULL,NA,NA,NA
3,4,4,memory,kr,6,5,꾸,NA,NA,NULL,NA,NA,NA
3,4,4,updating,kr,1,0,뿌,휴,NA,NULL,NA,NA,yes
3,4,4,updating,kr,2,5,꾸,조,NA,NULL,NA,NA,yes
3,4,4,updating,kr,3,4,음,았,NA,NULL,NA,NA,yes
3,4,4,retrieval,kr,1,0,뿌,휴,뜻;보;효;표;위;큼,휴,TRUE,5155,yes
3,4,4,retrieval,kr,2,4,음,았,뜻;보;효;표;위;큼,았,TRUE,2989,yes
3,4,4,retrieval,kr,3,3,문,문,뜻;보;효;표;위;큼,문,TRUE,7580.099999904633,no
3,4,4,retrieval,kr,4,2,르,르,뜻;보;효;표;위;큼,르,TRUE,4878.100000143051,no
3,4,4,retrieval,kr,5,1,까,까,뜻;보;효;표;위;큼,까,TRUE,2993.5999999046326,no
3,4,4,retrieval,kr,6,5,꾸,조,뜻;보;효;표;위;큼,조,TRUE,4260.299999952316,yes
3,4,5,memory,kr,1,0,큼,NA,NA,NULL,NA,NA,NA
3,4,5,memory,kr,2,1,았,NA,NA,NULL,NA,NA,NA
3,4,5,memory,kr,3,2,보,NA,NA,NULL,NA,NA,NA
3,4,5,memory,kr,4,3,뿌,NA,NA,NULL,NA,NA,NA
3,4,5,memory,kr,5,4,조,NA,NA,NULL,NA,NA,NA
3,4,5,memory,kr,6,5,위,NA,NA,NULL,NA,NA,NA
3,4,5,updating,kr,1,4,조,뜻,NA,NULL,NA,NA,yes
3,4,5,updating,kr,2,3,뿌,음,NA,NULL,NA,NA,yes
3,4,5,updating,kr,3,5,위,까,NA,NULL,NA,NA,yes
3,4,5,retrieval,kr,1,4,조,뜻,꾸;문;표;르;휴;효,뜻,TRUE,3752.2000000476837,yes
3,4,5,retrieval,kr,2,1,았,았,꾸;문;표;르;휴;효,았,TRUE,2925.4000000953674,no
3,4,5,retrieval,kr,3,5,위,까,꾸;문;표;르;휴;효,까,TRUE,5729.299999952316,yes
3,4,5,retrieval,kr,4,3,뿌,음,꾸;문;표;르;휴;효,음,TRUE,2886.4000000953674,yes
3,4,5,retrieval,kr,5,0,큼,큼,꾸;문;표;르;휴;효,큼,TRUE,5218.799999952316,no
3,4,5,retrieval,kr,6,2,보,보,꾸;문;표;르;휴;효,보,TRUE,6273.099999904633,no
3,4,6,memory,kr,1,0,뜻,NA,NA,NULL,NA,NA,NA
3,4,6,memory,kr,2,1,까,NA,NA,NULL,NA,NA,NA
3,4,6,memory,kr,3,2,위,NA,NA,NULL,NA,NA,NA
3,4,6,memory,kr,4,3,꾸,NA,NA,NULL,NA,NA,NA
3,4,6,memory,kr,5,4,문,NA,NA,NULL,NA,NA,NA
3,4,6,memory,kr,6,5,큼,NA,NA,NULL,NA,NA,NA
3,4,6,updating,kr,1,0,뜻,효,NA,NULL,NA,NA,yes
3,4,6,updating,kr,2,3,꾸,보,NA,NULL,NA,NA,yes
3,4,6,updating,kr,3,5,큼,뿌,NA,NULL,NA,NA,yes
3,4,6,retrieval,kr,1,2,위,위,르;조;음;휴;표;았,았,FALSE,5076.799999952316,no
3,4,6,retrieval,kr,2,5,큼,뿌,르;조;음;휴;표;았,뿌,TRUE,3764.4000000953674,yes
3,4,6,retrieval,kr,3,1,까,까,르;조;음;휴;표;았,까,TRUE,2934.5,no
3,4,6,retrieval,kr,4,0,뜻,효,르;조;음;휴;표;았,효,TRUE,3485.5,yes
3,4,6,retrieval,kr,5,3,꾸,보,르;조;음;휴;표;았,보,TRUE,3039.800000190735,yes
3,4,6,retrieval,kr,6,4,문,문,르;조;음;휴;표;았,문,TRUE,6162.299999952316,no
3,4,7,memory,kr,1,0,조,NA,NA,NULL,NA,NA,NA
3,4,7,memory,kr,2,1,뜻,NA,NA,NULL,NA,NA,NA
3,4,7,memory,kr,3,2,았,NA,NA,NULL,NA,NA,NA
3,4,7,memory,kr,4,3,르,NA,NA,NULL,NA,NA,NA
3,4,7,memory,kr,5,4,효,NA,NA,NULL,NA,NA,NA
3,4,7,memory,kr,6,5,보,NA,NA,NULL,NA,NA,NA
3,4,7,updating,kr,1,2,았,큼,NA,NULL,NA,NA,yes
3,4,7,updating,kr,2,1,뜻,표,NA,NULL,NA,NA,yes
3,4,7,updating,kr,3,0,조,뿌,NA,NULL,NA,NA,yes
3,4,7,retrieval,kr,1,4,효,효,위;휴;꾸;음;문;까,효,TRUE,3485.2999999523163,no
3,4,7,retrieval,kr,2,5,보,보,위;휴;꾸;음;문;까,보,TRUE,4168.099999904633,no
3,4,7,retrieval,kr,3,2,았,큼,위;휴;꾸;음;문;까,큼,TRUE,6766.299999952316,yes
3,4,7,retrieval,kr,4,0,조,뿌,위;휴;꾸;음;문;까,뿌,TRUE,2957.100000143051,yes
3,4,7,retrieval,kr,5,1,뜻,표,위;휴;꾸;음;문;까,표,TRUE,3335.7999999523163,yes
3,4,7,retrieval,kr,6,3,르,르,위;휴;꾸;음;문;까,르,TRUE,2975.399999856949,no
3,4,8,memory,kr,1,0,휴,NA,NA,NULL,NA,NA,NA
3,4,8,memory,kr,2,1,꾸,NA,NA,NULL,NA,NA,NA
3,4,8,memory,kr,3,2,보,NA,NA,NULL,NA,NA,NA
3,4,8,memory,kr,4,3,르,NA,NA,NULL,NA,NA,NA
3,4,8,memory,kr,5,4,조,NA,NA,NULL,NA,NA,NA
3,4,8,memory,kr,6,5,위,NA,NA,NULL,NA,NA,NA
3,4,8,updating,kr,1,3,르,았,NA,NULL,NA,NA,yes
3,4,8,updating,kr,2,1,꾸,큼,NA,NULL,NA,NA,yes
3,4,8,updating,kr,3,4,조,까,NA,NULL,NA,NA,yes
3,4,8,retrieval,kr,1,5,위,위,효;표;음;뜻;문;뿌,위,TRUE,4090.2999999523163,no
3,4,8,retrieval,kr,2,2,보,보,효;표;음;뜻;문;뿌,보,TRUE,12783.600000143051,no
3,4,8,retrieval,kr,3,1,꾸,큼,효;표;음;뜻;문;뿌,큼,TRUE,3143,yes
3,4,8,retrieval,kr,4,3,르,았,효;표;음;뜻;문;뿌,았,TRUE,2622.2000000476837,yes
3,4,8,retrieval,kr,5,0,휴,휴,효;표;음;뜻;문;뿌,휴,TRUE,2493,no
3,4,8,retrieval,kr,6,4,조,까,효;표;음;뜻;문;뿌,까,TRUE,2556.100000143051,yes
3,5,1,memory,kr,1,0,르,NA,NA,NULL,NA,NA,NA
3,5,1,memory,kr,2,1,표,NA,NA,NULL,NA,NA,NA
3,5,1,memory,kr,3,2,뜻,NA,NA,NULL,NA,NA,NA
3,5,1,memory,kr,4,3,까,NA,NA,NULL,NA,NA,NA
3,5,1,memory,kr,5,4,큼,NA,NA,NULL,NA,NA,NA
3,5,1,memory,kr,6,5,았,NA,NA,NULL,NA,NA,NA
3,5,1,updating,kr,1,0,르,보,NA,NULL,NA,NA,yes
3,5,1,updating,kr,2,1,표,뿌,NA,NULL,NA,NA,yes
3,5,1,updating,kr,3,5,았,위,NA,NULL,NA,NA,yes
3,5,1,retrieval,kr,1,0,르,보,조;꾸;휴;음;문;효,보,TRUE,6164.399999856949,yes
3,5,1,retrieval,kr,2,4,큼,큼,조;꾸;휴;음;문;효,문,FALSE,5496.599999904633,no
3,5,1,retrieval,kr,3,2,뜻,뜻,조;꾸;휴;음;문;효,문,FALSE,2095.9000000953674,no
3,5,1,retrieval,kr,4,1,표,뿌,조;꾸;휴;음;문;효,뿌,TRUE,2478.7999999523163,yes
3,5,1,retrieval,kr,5,3,까,까,조;꾸;휴;음;문;효,문,FALSE,2023.1000001430511,no
3,5,1,retrieval,kr,6,5,았,위,조;꾸;휴;음;문;효,위,TRUE,3390.100000143051,yes
3,5,2,memory,kr,1,0,뿌,NA,NA,NULL,NA,NA,NA
3,5,2,memory,kr,2,1,휴,NA,NA,NULL,NA,NA,NA
3,5,2,memory,kr,3,2,위,NA,NA,NULL,NA,NA,NA
3,5,2,memory,kr,4,3,표,NA,NA,NULL,NA,NA,NA
3,5,2,memory,kr,5,4,았,NA,NA,NULL,NA,NA,NA
3,5,2,memory,kr,6,5,큼,NA,NA,NULL,NA,NA,NA
3,5,2,updating,kr,1,1,휴,문,NA,NULL,NA,NA,yes
3,5,2,updating,kr,2,4,았,효,NA,NULL,NA,NA,yes
3,5,2,updating,kr,3,2,위,보,NA,NULL,NA,NA,yes
3,5,2,retrieval,kr,1,2,위,보,조;까;꾸;르;음;뜻,보,TRUE,5656,yes
3,5,2,retrieval,kr,2,4,았,효,조;까;꾸;르;음;뜻,효,TRUE,5861.899999856949,yes
3,5,2,retrieval,kr,3,5,큼,큼,조;까;꾸;르;음;뜻,큼,TRUE,3301.5999999046326,no
3,5,2,retrieval,kr,4,1,휴,문,조;까;꾸;르;음;뜻,문,TRUE,3305.0999999046326,yes
3,5,2,retrieval,kr,5,3,표,표,조;까;꾸;르;음;뜻,표,TRUE,2534.100000143051,no
3,5,2,retrieval,kr,6,0,뿌,뿌,조;까;꾸;르;음;뜻,조,FALSE,3182.7000000476837,no
3,5,3,memory,kr,1,0,표,NA,NA,NULL,NA,NA,NA
3,5,3,memory,kr,2,1,까,NA,NA,NULL,NA,NA,NA
3,5,3,memory,kr,3,2,큼,NA,NA,NULL,NA,NA,NA
3,5,3,memory,kr,4,3,조,NA,NA,NULL,NA,NA,NA
3,5,3,memory,kr,5,4,뜻,NA,NA,NULL,NA,NA,NA
3,5,3,memory,kr,6,5,음,NA,NA,NULL,NA,NA,NA
3,5,3,updating,kr,1,5,음,위,NA,NULL,NA,NA,yes
3,5,3,updating,kr,2,1,까,았,NA,NULL,NA,NA,yes
3,5,3,updating,kr,3,0,표,보,NA,NULL,NA,NA,yes
3,5,3,retrieval,kr,1,4,뜻,뜻,꾸;휴;뿌;효;문;르,뜻,TRUE,5021.799999952316,no
3,5,3,retrieval,kr,2,3,조,조,꾸;휴;뿌;효;문;르,조,TRUE,2470.5,no
3,5,3,retrieval,kr,3,1,까,았,꾸;휴;뿌;효;문;르,았,TRUE,3236.2999999523163,yes
3,5,3,retrieval,kr,4,2,큼,큼,꾸;휴;뿌;효;문;르,큼,TRUE,3906.2000000476837,no
3,5,3,retrieval,kr,5,0,표,보,꾸;휴;뿌;효;문;르,보,TRUE,9629.200000047684,yes
3,5,3,retrieval,kr,6,5,음,위,꾸;휴;뿌;효;문;르,위,TRUE,2446.2000000476837,yes
3,5,4,memory,kr,1,0,르,NA,NA,NULL,NA,NA,NA
3,5,4,memory,kr,2,1,위,NA,NA,NULL,NA,NA,NA
3,5,4,memory,kr,3,2,음,NA,NA,NULL,NA,NA,NA
3,5,4,memory,kr,4,3,보,NA,NA,NULL,NA,NA,NA
3,5,4,memory,kr,5,4,휴,NA,NA,NULL,NA,NA,NA
3,5,4,memory,kr,6,5,았,NA,NA,NULL,NA,NA,NA
3,5,4,updating,kr,1,4,휴,문,NA,NULL,NA,NA,yes
3,5,4,updating,kr,2,3,보,효,NA,NULL,NA,NA,yes
3,5,4,updating,kr,3,2,음,뜻,NA,NULL,NA,NA,yes
3,5,4,retrieval,kr,1,0,르,르,조;뿌;까;큼;표;꾸,르,TRUE,7527.5,no
3,5,4,retrieval,kr,2,4,휴,문,조;뿌;까;큼;표;꾸,문,TRUE,3360.9000000953674,yes
3,5,4,retrieval,kr,3,3,보,효,조;뿌;까;큼;표;꾸,효,TRUE,6282.200000047684,yes
3,5,4,retrieval,kr,4,1,위,위,조;뿌;까;큼;표;꾸,위,TRUE,4564.799999952316,no
3,5,4,retrieval,kr,5,2,음,뜻,조;뿌;까;큼;표;꾸,뜻,TRUE,5957,yes
3,5,4,retrieval,kr,6,5,았,았,조;뿌;까;큼;표;꾸,았,TRUE,3926.2000000476837,no
3,5,5,memory,kr,1,0,표,NA,NA,NULL,NA,NA,NA
3,5,5,memory,kr,2,1,았,NA,NA,NULL,NA,NA,NA
3,5,5,memory,kr,3,2,보,NA,NA,NULL,NA,NA,NA
3,5,5,memory,kr,4,3,조,NA,NA,NULL,NA,NA,NA
3,5,5,memory,kr,5,4,효,NA,NA,NULL,NA,NA,NA
3,5,5,memory,kr,6,5,음,NA,NA,NULL,NA,NA,NA
3,5,5,updating,kr,1,3,조,위,NA,NULL,NA,NA,yes
3,5,5,updating,kr,2,0,표,까,NA,NULL,NA,NA,yes
3,5,5,updating,kr,3,4,효,문,NA,NULL,NA,NA,yes
3,5,5,retrieval,kr,1,3,조,위,큼;르;뜻;꾸;휴;뿌,위,TRUE,4866,yes
3,5,5,retrieval,kr,2,1,았,았,큼;르;뜻;꾸;휴;뿌,았,TRUE,2796.5,no
3,5,5,retrieval,kr,3,2,보,보,큼;르;뜻;꾸;휴;뿌,보,TRUE,2886.100000143051,no
3,5,5,retrieval,kr,4,5,음,음,큼;르;뜻;꾸;휴;뿌,음,TRUE,3895.4000000953674,no
3,5,5,retrieval,kr,5,0,표,까,큼;르;뜻;꾸;휴;뿌,까,TRUE,2933.199999809265,yes
3,5,5,retrieval,kr,6,4,효,문,큼;르;뜻;꾸;휴;뿌,문,TRUE,5644.899999856949,yes
3,5,6,memory,kr,1,0,문,NA,NA,NULL,NA,NA,NA
3,5,6,memory,kr,2,1,보,NA,NA,NULL,NA,NA,NA
3,5,6,memory,kr,3,2,르,NA,NA,NULL,NA,NA,NA
3,5,6,memory,kr,4,3,큼,NA,NA,NULL,NA,NA,NA
3,5,6,memory,kr,5,4,뜻,NA,NA,NULL,NA,NA,NA
3,5,6,memory,kr,6,5,휴,NA,NA,NULL,NA,NA,NA
3,5,6,updating,kr,1,2,르,뿌,NA,NULL,NA,NA,yes
3,5,6,updating,kr,2,3,큼,위,NA,NULL,NA,NA,yes
3,5,6,updating,kr,3,0,문,효,NA,NULL,NA,NA,yes
3,5,6,retrieval,kr,1,4,뜻,뜻,조;았;꾸;표;음;까,뜻,TRUE,4979.299999952316,no
3,5,6,retrieval,kr,2,5,휴,휴,조;았;꾸;표;음;까,휴,TRUE,3562.7000000476837,no
3,5,6,retrieval,kr,3,1,보,보,조;았;꾸;표;음;까,보,TRUE,4504,no
3,5,6,retrieval,kr,4,2,르,뿌,조;았;꾸;표;음;까,뿌,TRUE,3435.9000000953674,yes
3,5,6,retrieval,kr,5,0,문,효,조;았;꾸;표;음;까,효,TRUE,3453.2000000476837,yes
3,5,6,retrieval,kr,6,3,큼,위,조;았;꾸;표;음;까,위,TRUE,2769.5999999046326,yes
3,5,7,memory,kr,1,0,문,NA,NA,NULL,NA,NA,NA
3,5,7,memory,kr,2,1,표,NA,NA,NULL,NA,NA,NA
3,5,7,memory,kr,3,2,음,NA,NA,NULL,NA,NA,NA
3,5,7,memory,kr,4,3,보,NA,NA,NULL,NA,NA,NA
3,5,7,memory,kr,5,4,뜻,NA,NA,NULL,NA,NA,NA
3,5,7,memory,kr,6,5,르,NA,NA,NULL,NA,NA,NA
3,5,7,updating,kr,1,1,표,꾸,NA,NULL,NA,NA,yes
3,5,7,updating,kr,2,2,음,았,NA,NULL,NA,NA,yes
3,5,7,updating,kr,3,4,뜻,뿌,NA,NULL,NA,NA,yes
3,5,7,retrieval,kr,1,0,문,문,휴;위;조;까;효;큼,문,TRUE,3655.600000143051,no
3,5,7,retrieval,kr,2,3,보,보,휴;위;조;까;효;큼,보,TRUE,3749.300000190735,no
3,5,7,retrieval,kr,3,4,뜻,뿌,휴;위;조;까;효;큼,뿌,TRUE,2411.7999999523163,yes
3,5,7,retrieval,kr,4,2,음,았,휴;위;조;까;효;큼,았,TRUE,2341.9000000953674,yes
3,5,7,retrieval,kr,5,1,표,꾸,휴;위;조;까;효;큼,까,FALSE,3000.5,yes
3,5,7,retrieval,kr,6,5,르,르,휴;위;조;까;효;큼,르,TRUE,2514,no
3,5,8,memory,kr,1,0,뿌,NA,NA,NULL,NA,NA,NA
3,5,8,memory,kr,2,1,았,NA,NA,NULL,NA,NA,NA
3,5,8,memory,kr,3,2,르,NA,NA,NULL,NA,NA,NA
3,5,8,memory,kr,4,3,뜻,NA,NA,NULL,NA,NA,NA
3,5,8,memory,kr,5,4,보,NA,NA,NULL,NA,NA,NA
3,5,8,memory,kr,6,5,효,NA,NA,NULL,NA,NA,NA
3,5,8,updating,kr,1,5,효,조,NA,NULL,NA,NA,yes
3,5,8,updating,kr,2,1,았,휴,NA,NULL,NA,NA,yes
3,5,8,updating,kr,3,0,뿌,음,NA,NULL,NA,NA,yes
3,5,8,retrieval,kr,1,3,뜻,뜻,까;표;위;큼;문;꾸,뜻,TRUE,4219.100000143051,no
3,5,8,retrieval,kr,2,1,았,휴,까;표;위;큼;문;꾸,휴,TRUE,2556.2999999523163,yes
3,5,8,retrieval,kr,3,2,르,르,까;표;위;큼;문;꾸,르,TRUE,4343.599999904633,no
3,5,8,retrieval,kr,4,5,효,조,까;표;위;큼;문;꾸,조,TRUE,3454.0999999046326,yes
3,5,8,retrieval,kr,5,4,보,보,까;표;위;큼;문;꾸,보,TRUE,2707.2000000476837,no
3,5,8,retrieval,kr,6,0,뿌,음,까;표;위;큼;문;꾸,음,TRUE,3745,yes
5,1,1,memory,kr,1,0,보,NA,NA,NULL,NA,NA,NA
5,1,1,memory,kr,2,1,큼,NA,NA,NULL,NA,NA,NA
5,1,1,memory,kr,3,2,뿌,NA,NA,NULL,NA,NA,NA
5,1,1,memory,kr,4,3,았,NA,NA,NULL,NA,NA,NA
5,1,1,memory,kr,5,4,효,NA,NA,NULL,NA,NA,NA
5,1,1,memory,kr,6,5,음,NA,NA,NULL,NA,NA,NA
5,1,1,updating,kr,1,5,음,꾸,NA,NULL,NA,NA,yes
5,1,1,updating,kr,2,1,큼,까,NA,NULL,NA,NA,yes
5,1,1,updating,kr,3,2,뿌,문,NA,NULL,NA,NA,yes
5,1,1,retrieval,kr,1,1,큼,까,뜻;표;휴;위;조;르,뜻,FALSE,4579.700000047684,yes
5,1,1,retrieval,kr,2,2,뿌,문,뜻;표;휴;위;조;르,문,TRUE,2846.7999999523163,yes
5,1,1,retrieval,kr,3,4,효,효,뜻;표;휴;위;조;르,큼,FALSE,2585.7999999523163,no
5,1,1,retrieval,kr,4,5,음,꾸,뜻;표;휴;위;조;르,까,FALSE,1471.3000001907349,yes
5,1,1,retrieval,kr,5,3,았,았,뜻;표;휴;위;조;르,르,FALSE,693.9000000953674,no
5,1,1,retrieval,kr,6,0,보,보,뜻;표;휴;위;조;르,표,FALSE,893.6999998092651,no
5,1,2,memory,kr,1,0,휴,NA,NA,NULL,NA,NA,NA
5,1,2,memory,kr,2,1,문,NA,NA,NULL,NA,NA,NA
5,1,2,memory,kr,3,2,보,NA,NA,NULL,NA,NA,NA
5,1,2,memory,kr,4,3,위,NA,NA,NULL,NA,NA,NA
5,1,2,memory,kr,5,4,조,NA,NA,NULL,NA,NA,NA
5,1,2,memory,kr,6,5,꾸,NA,NA,NULL,NA,NA,NA
5,1,2,updating,kr,1,0,휴,큼,NA,NULL,NA,NA,yes
5,1,2,updating,kr,2,1,문,까,NA,NULL,NA,NA,yes
5,1,2,updating,kr,3,3,위,뜻,NA,NULL,NA,NA,yes
5,1,2,retrieval,kr,1,1,문,까,효;표;음;뿌;았;르,큼,FALSE,7713.799999952316,yes
5,1,2,retrieval,kr,2,5,꾸,꾸,효;표;음;뿌;았;르,꾸,TRUE,2766.4000000953674,no
5,1,2,retrieval,kr,3,0,휴,큼,효;표;음;뿌;았;르,큼,TRUE,3542.0999999046326,yes
5,1,2,retrieval,kr,4,2,보,보,효;표;음;뿌;았;르,조,FALSE,4852,no
5,1,2,retrieval,kr,5,4,조,조,효;표;음;뿌;았;르,뿌,FALSE,1898.5,no
5,1,2,retrieval,kr,6,3,위,뜻,효;표;음;뿌;았;르,문,FALSE,1363.5,yes
5,1,3,memory,kr,1,0,았,NA,NA,NULL,NA,NA,NA
5,1,3,memory,kr,2,1,큼,NA,NA,NULL,NA,NA,NA
5,1,3,memory,kr,3,2,뜻,NA,NA,NULL,NA,NA,NA
5,1,3,memory,kr,4,3,음,NA,NA,NULL,NA,NA,NA
5,1,3,memory,kr,5,4,문,NA,NA,NULL,NA,NA,NA
5,1,3,memory,kr,6,5,표,NA,NA,NULL,NA,NA,NA
5,1,3,updating,kr,1,5,표,르,NA,NULL,NA,NA,yes
5,1,3,updating,kr,2,2,뜻,보,NA,NULL,NA,NA,yes
5,1,3,updating,kr,3,4,문,휴,NA,NULL,NA,NA,yes
5,1,3,retrieval,kr,1,1,큼,큼,조;뿌;까;꾸;효;위,았,FALSE,2965.0999999046326,no
5,1,3,retrieval,kr,2,0,았,았,조;뿌;까;꾸;효;위,았,TRUE,862.0999999046326,no
5,1,3,retrieval,kr,3,2,뜻,보,조;뿌;까;꾸;효;위,르,FALSE,4669.599999904633,yes
5,1,3,retrieval,kr,4,5,표,르,조;뿌;까;꾸;효;위,르,TRUE,1603.5,yes
5,1,3,retrieval,kr,5,4,문,휴,조;뿌;까;꾸;효;위,조,FALSE,1623.7000000476837,yes
5,1,3,retrieval,kr,6,3,음,음,조;뿌;까;꾸;효;위,보,FALSE,1039.5,no
5,1,4,memory,kr,1,0,조,NA,NA,NULL,NA,NA,NA
5,1,4,memory,kr,2,1,휴,NA,NA,NULL,NA,NA,NA
5,1,4,memory,kr,3,2,까,NA,NA,NULL,NA,NA,NA
5,1,4,memory,kr,4,3,표,NA,NA,NULL,NA,NA,NA
5,1,4,memory,kr,5,4,보,NA,NA,NULL,NA,NA,NA
5,1,4,memory,kr,6,5,위,NA,NA,NULL,NA,NA,NA
5,1,4,updating,kr,1,4,보,음,NA,NULL,NA,NA,yes
5,1,4,updating,kr,2,2,까,문,NA,NULL,NA,NA,yes
5,1,4,updating,kr,3,1,휴,꾸,NA,NULL,NA,NA,yes
5,1,4,retrieval,kr,1,2,까,문,큼;르;뿌;효;뜻;았,꾸,FALSE,5695.700000047684,yes
5,1,4,retrieval,kr,2,5,위,위,큼;르;뿌;효;뜻;았,위,TRUE,2789.300000190735,no
5,1,4,retrieval,kr,3,0,조,조,큼;르;뿌;효;뜻;았,조,TRUE,1830,no
5,1,4,retrieval,kr,4,3,표,표,큼;르;뿌;효;뜻;았,문,FALSE,2304.5,no
5,1,4,retrieval,kr,5,4,보,음,큼;르;뿌;효;뜻;았,문,FALSE,1444.7000000476837,yes
5,1,4,retrieval,kr,6,1,휴,꾸,큼;르;뿌;효;뜻;았,뿌,FALSE,6336.400000095367,yes
5,1,5,memory,kr,1,0,표,NA,NA,NULL,NA,NA,NA
5,1,5,memory,kr,2,1,꾸,NA,NA,NULL,NA,NA,NA
5,1,5,memory,kr,3,2,효,NA,NA,NULL,NA,NA,NA
5,1,5,memory,kr,4,3,보,NA,NA,NULL,NA,NA,NA
5,1,5,memory,kr,5,4,휴,NA,NA,NULL,NA,NA,NA
5,1,5,memory,kr,6,5,조,NA,NA,NULL,NA,NA,NA
5,1,5,updating,kr,1,5,조,르,NA,NULL,NA,NA,yes
5,1,5,updating,kr,2,0,표,문,NA,NULL,NA,NA,yes
5,1,5,updating,kr,3,4,휴,음,NA,NULL,NA,NA,yes
5,1,5,retrieval,kr,1,0,표,문,뿌;큼;위;았;뜻;까,꾸,FALSE,10816.600000143051,yes
5,1,5,retrieval,kr,2,5,조,르,뿌;큼;위;았;뜻;까,꾸,FALSE,1143.2000000476837,yes
5,1,5,retrieval,kr,3,2,효,효,뿌;큼;위;았;뜻;까,조,FALSE,1283.7999999523163,no
5,1,5,retrieval,kr,4,1,꾸,꾸,뿌;큼;위;았;뜻;까,표,FALSE,1116.9000000953674,no
5,1,5,retrieval,kr,5,3,보,보,뿌;큼;위;았;뜻;까,문,FALSE,1395.1999998092651,no
5,1,5,retrieval,kr,6,4,휴,음,뿌;큼;위;았;뜻;까,뜻,FALSE,942,yes
5,1,6,memory,kr,1,0,뜻,NA,NA,NULL,NA,NA,NA
5,1,6,memory,kr,2,1,꾸,NA,NA,NULL,NA,NA,NA
5,1,6,memory,kr,3,2,까,NA,NA,NULL,NA,NA,NA
5,1,6,memory,kr,4,3,표,NA,NA,NULL,NA,NA,NA
5,1,6,memory,kr,5,4,보,NA,NA,NULL,NA,NA,NA
5,1,6,memory,kr,6,5,문,NA,NA,NULL,NA,NA,NA
5,1,6,updating,kr,1,4,보,큼,NA,NULL,NA,NA,yes
5,1,6,updating,kr,2,3,표,뿌,NA,NULL,NA,NA,yes
5,1,6,updating,kr,3,2,까,효,NA,NULL,NA,NA,yes
5,1,6,retrieval,kr,1,1,꾸,꾸,위;휴;조;음;르;았,꾸,TRUE,5174.599999904633,no
5,1,6,retrieval,kr,2,0,뜻,뜻,위;휴;조;음;르;았,뜻,TRUE,848.5999999046326,no
5,1,6,retrieval,kr,3,2,까,효,위;휴;조;음;르;았,표,FALSE,7824.5,yes
5,1,6,retrieval,kr,4,4,보,큼,위;휴;조;음;르;았,표,FALSE,1618.8999998569489,yes
5,1,6,retrieval,kr,5,3,표,뿌,위;휴;조;음;르;았,표,FALSE,520,yes
5,1,6,retrieval,kr,6,5,문,문,위;휴;조;음;르;았,표,FALSE,495.2999999523163,no
5,1,7,memory,kr,1,0,뜻,NA,NA,NULL,NA,NA,NA
5,1,7,memory,kr,2,1,표,NA,NA,NULL,NA,NA,NA
5,1,7,memory,kr,3,2,휴,NA,NA,NULL,NA,NA,NA
5,1,7,memory,kr,4,3,조,NA,NA,NULL,NA,NA,NA
5,1,7,memory,kr,5,4,위,NA,NA,NULL,NA,NA,NA
5,1,7,memory,kr,6,5,큼,NA,NA,NULL,NA,NA,NA
5,1,7,updating,kr,1,1,표,보,NA,NULL,NA,NA,yes
5,1,7,updating,kr,2,2,휴,음,NA,NULL,NA,NA,yes
5,1,7,updating,kr,3,3,조,효,NA,NULL,NA,NA,yes
5,1,7,retrieval,kr,1,5,큼,큼,문;꾸;뿌;았;까;르,휴,FALSE,10074.799999952316,no
5,1,7,retrieval,kr,2,3,조,효,문;꾸;뿌;았;까;르,효,TRUE,1209.9000000953674,yes
5,1,7,retrieval,kr,3,1,표,보,문;꾸;뿌;았;까;르,표,FALSE,5721,yes
5,1,7,retrieval,kr,4,2,휴,음,문;꾸;뿌;았;까;르,조,FALSE,1560.2000000476837,yes
5,1,7,retrieval,kr,5,4,위,위,문;꾸;뿌;았;까;르,위,TRUE,2265.0999999046326,no
5,1,7,retrieval,kr,6,0,뜻,뜻,문;꾸;뿌;았;까;르,뜻,TRUE,2185.7000000476837,no
5,1,8,memory,kr,1,0,까,NA,NA,NULL,NA,NA,NA
5,1,8,memory,kr,2,1,큼,NA,NA,NULL,NA,NA,NA
5,1,8,memory,kr,3,2,표,NA,NA,NULL,NA,NA,NA
5,1,8,memory,kr,4,3,효,NA,NA,NULL,NA,NA,NA
5,1,8,memory,kr,5,4,뿌,NA,NA,NULL,NA,NA,NA
5,1,8,memory,kr,6,5,르,NA,NA,NULL,NA,NA,NA
5,1,8,updating,kr,1,4,뿌,뜻,NA,NULL,NA,NA,yes
5,1,8,updating,kr,2,1,큼,위,NA,NULL,NA,NA,yes
5,1,8,updating,kr,3,2,표,았,NA,NULL,NA,NA,yes
5,1,8,retrieval,kr,1,5,르,르,문;음;조;휴;꾸;보,조,FALSE,3584.7000000476837,no
5,1,8,retrieval,kr,2,4,뿌,뜻,문;음;조;휴;꾸;보,뜻,TRUE,3487.2999999523163,yes
5,1,8,retrieval,kr,3,2,표,았,문;음;조;휴;꾸;보,았,TRUE,1569.1000001430511,yes
5,1,8,retrieval,kr,4,3,효,효,문;음;조;휴;꾸;보,뿌,FALSE,5208.299999952316,no
5,1,8,retrieval,kr,5,0,까,까,문;음;조;휴;꾸;보,까,TRUE,7230.700000047684,no
5,1,8,retrieval,kr,6,1,큼,위,문;음;조;휴;꾸;보,았,FALSE,1431.5,yes
5,2,1,memory,kr,1,0,조,NA,NA,NULL,NA,NA,NA
5,2,1,memory,kr,2,1,뿌,NA,NA,NULL,NA,NA,NA
5,2,1,memory,kr,3,2,뜻,NA,NA,NULL,NA,NA,NA
5,2,1,memory,kr,4,3,르,NA,NA,NULL,NA,NA,NA
5,2,1,memory,kr,5,4,꾸,NA,NA,NULL,NA,NA,NA
5,2,1,memory,kr,6,5,큼,NA,NA,NULL,NA,NA,NA
5,2,1,updating,kr,1,4,꾸,위,NA,NULL,NA,NA,yes
5,2,1,updating,kr,2,3,르,음,NA,NULL,NA,NA,yes
5,2,1,updating,kr,3,0,조,보,NA,NULL,NA,NA,yes
5,2,1,retrieval,kr,1,2,뜻,뜻,효;까;문;휴;았;표,조,FALSE,1707.5,no
5,2,1,retrieval,kr,2,5,큼,큼,효;까;문;휴;았;표,조,FALSE,774.4000000953674,no
5,2,1,retrieval,kr,3,4,꾸,위,효;까;문;휴;았;표,조,FALSE,578.8999998569489,yes
5,2,1,retrieval,kr,4,1,뿌,뿌,효;까;문;휴;았;표,음,FALSE,4131.399999856949,no
5,2,1,retrieval,kr,5,0,조,보,효;까;문;휴;았;표,뜻,FALSE,3846.4000000953674,yes
5,2,1,retrieval,kr,6,3,르,음,효;까;문;휴;았;표,위,FALSE,3467.600000143051,yes
5,2,2,memory,kr,1,0,음,NA,NA,NULL,NA,NA,NA
5,2,2,memory,kr,2,1,표,NA,NA,NULL,NA,NA,NA
5,2,2,memory,kr,3,2,큼,NA,NA,NULL,NA,NA,NA
5,2,2,memory,kr,4,3,았,NA,NA,NULL,NA,NA,NA
5,2,2,memory,kr,5,4,뜻,NA,NA,NULL,NA,NA,NA
5,2,2,memory,kr,6,5,휴,NA,NA,NULL,NA,NA,NA
5,2,2,updating,kr,1,0,음,보,NA,NULL,NA,NA,yes
5,2,2,updating,kr,2,2,큼,문,NA,NULL,NA,NA,yes
5,2,2,updating,kr,3,3,았,까,NA,NULL,NA,NA,yes
5,2,2,retrieval,kr,1,2,큼,문,뿌;효;조;르;위;꾸,았,FALSE,2156.0999999046326,yes
5,2,2,retrieval,kr,2,4,뜻,뜻,뿌;효;조;르;위;꾸,뜻,TRUE,2502.5999999046326,no
5,2,2,retrieval,kr,3,1,표,표,뿌;효;조;르;위;꾸,뜻,FALSE,1297.7999999523163,no
5,2,2,retrieval,kr,4,3,았,까,뿌;효;조;르;위;꾸,문,FALSE,5464.5,yes
5,2,2,retrieval,kr,5,0,음,보,뿌;효;조;르;위;꾸,표,FALSE,3843.2000000476837,yes
5,2,2,retrieval,kr,6,5,휴,휴,뿌;효;조;르;위;꾸,르,FALSE,1076.3999998569489,no
5,2,3,memory,kr,1,0,위,NA,NA,NULL,NA,NA,NA
5,2,3,memory,kr,2,1,뜻,NA,NA,NULL,NA,NA,NA
5,2,3,memory,kr,3,2,효,NA,NA,NULL,NA,NA,NA
5,2,3,memory,kr,4,3,휴,NA,NA,NULL,NA,NA,NA
5,2,3,memory,kr,5,4,까,NA,NA,NULL,NA,NA,NA
5,2,3,memory,kr,6,5,음,NA,NA,NULL,NA,NA,NA
5,2,3,updating,kr,1,5,음,보,NA,NULL,NA,NA,yes
5,2,3,updating,kr,2,3,휴,문,NA,NULL,NA,NA,yes
5,2,3,updating,kr,3,2,효,큼,NA,NULL,NA,NA,yes
5,2,3,retrieval,kr,1,2,효,큼,표;뿌;꾸;조;르;았,큼,TRUE,2491,yes
5,2,3,retrieval,kr,2,4,까,까,표;뿌;꾸;조;르;았,뜻,FALSE,2693,no
5,2,3,retrieval,kr,3,0,위,위,표;뿌;꾸;조;르;았,위,TRUE,5101.400000095367,no
5,2,3,retrieval,kr,4,5,음,보,표;뿌;꾸;조;르;았,위,FALSE,1066.6000001430511,yes
5,2,3,retrieval,kr,5,3,휴,문,표;뿌;꾸;조;르;았,뜻,FALSE,5986.299999952316,yes
5,2,3,retrieval,kr,6,1,뜻,뜻,표;뿌;꾸;조;르;았,효,FALSE,3161.7000000476837,no
5,2,4,memory,kr,1,0,뿌,NA,NA,NULL,NA,NA,NA
5,2,4,memory,kr,2,1,큼,NA,NA,NULL,NA,NA,NA
5,2,4,memory,kr,3,2,꾸,NA,NA,NULL,NA,NA,NA
5,2,4,memory,kr,4,3,조,NA,NA,NULL,NA,NA,NA
5,2,4,memory,kr,5,4,효,NA,NA,NULL,NA,NA,NA
5,2,4,memory,kr,6,5,뜻,NA,NA,NULL,NA,NA,NA
5,2,4,updating,kr,1,2,꾸,았,NA,NULL,NA,NA,yes
5,2,4,updating,kr,2,0,뿌,휴,NA,NULL,NA,NA,yes
5,2,4,updating,kr,3,1,큼,표,NA,NULL,NA,NA,yes
5,2,4,retrieval,kr,1,4,효,효,보;까;문;위;르;음,뜻,FALSE,1666,no
5,2,4,retrieval,kr,2,5,뜻,뜻,보;까;문;위;르;음,뜻,TRUE,569.8999998569489,no
5,2,4,retrieval,kr,3,1,큼,표,보;까;문;위;르;음,뿌,FALSE,10096.5,yes
5,2,4,retrieval,kr,4,3,조,조,보;까;문;위;르;음,뿌,FALSE,645.1000001430511,no
5,2,4,retrieval,kr,5,2,꾸,았,보;까;문;위;르;음,위,FALSE,3458.5999999046326,yes
5,2,4,retrieval,kr,6,0,뿌,휴,보;까;문;위;르;음,위,FALSE,705,yes
5,2,5,memory,kr,1,0,뜻,NA,NA,NULL,NA,NA,NA
5,2,5,memory,kr,2,1,음,NA,NA,NULL,NA,NA,NA
5,2,5,memory,kr,3,2,르,NA,NA,NULL,NA,NA,NA
5,2,5,memory,kr,4,3,았,NA,NA,NULL,NA,NA,NA
5,2,5,memory,kr,5,4,휴,NA,NA,NULL,NA,NA,NA
5,2,5,memory,kr,6,5,조,NA,NA,NULL,NA,NA,NA
5,2,5,updating,kr,1,2,르,보,NA,NULL,NA,NA,yes
5,2,5,updating,kr,2,3,았,뿌,NA,NULL,NA,NA,yes
5,2,5,updating,kr,3,4,휴,문,NA,NULL,NA,NA,yes
5,2,5,retrieval,kr,1,1,음,음,표;위;꾸;큼;까;효,뜻,FALSE,5724,no
5,2,5,retrieval,kr,2,2,르,보,표;위;꾸;큼;까;효,보,TRUE,6080.600000143051,yes
5,2,5,retrieval,kr,3,3,았,뿌,표;위;꾸;큼;까;효,뿌,TRUE,1073.1999998092651,yes
5,2,5,retrieval,kr,4,5,조,조,표;위;꾸;큼;까;효,효,FALSE,1698.6000001430511,no
5,2,5,retrieval,kr,5,4,휴,문,표;위;꾸;큼;까;효,문,TRUE,4324,yes
5,2,5,retrieval,kr,6,0,뜻,뜻,표;위;꾸;큼;까;효,효,FALSE,1643.6999998092651,no
5,2,6,memory,kr,1,0,았,NA,NA,NULL,NA,NA,NA
5,2,6,memory,kr,2,1,뜻,NA,NA,NULL,NA,NA,NA
5,2,6,memory,kr,3,2,표,NA,NA,NULL,NA,NA,NA
5,2,6,memory,kr,4,3,큼,NA,NA,NULL,NA,NA,NA
5,2,6,memory,kr,5,4,조,NA,NA,NULL,NA,NA,NA
5,2,6,memory,kr,6,5,꾸,NA,NA,NULL,NA,NA,NA
5,2,6,updating,kr,1,4,조,뿌,NA,NULL,NA,NA,yes
5,2,6,updating,kr,2,5,꾸,음,NA,NULL,NA,NA,yes
5,2,6,updating,kr,3,0,았,르,NA,NULL,NA,NA,yes
5,2,6,retrieval,kr,1,4,조,뿌,까;위;효;문;보;휴,표,FALSE,5068,yes
5,2,6,retrieval,kr,2,0,았,르,까;위;효;문;보;휴,표,FALSE,1247.5999999046326,yes
5,2,6,retrieval,kr,3,3,큼,큼,까;위;효;문;보;휴,표,FALSE,448.69999980926514,no
5,2,6,retrieval,kr,4,5,꾸,음,까;위;효;문;보;휴,효,FALSE,1170.2000000476837,yes
5,2,6,retrieval,kr,5,2,표,표,까;위;효;문;보;휴,았,FALSE,1484,no
5,2,6,retrieval,kr,6,1,뜻,뜻,까;위;효;문;보;휴,조,FALSE,1433,no
5,2,7,memory,kr,1,0,문,NA,NA,NULL,NA,NA,NA
5,2,7,memory,kr,2,1,꾸,NA,NA,NULL,NA,NA,NA
5,2,7,memory,kr,3,2,효,NA,NA,NULL,NA,NA,NA
5,2,7,memory,kr,4,3,음,NA,NA,NULL,NA,NA,NA
5,2,7,memory,kr,5,4,큼,NA,NA,NULL,NA,NA,NA
5,2,7,memory,kr,6,5,휴,NA,NA,NULL,NA,NA,NA
5,2,7,updating,kr,1,4,큼,르,NA,NULL,NA,NA,yes
5,2,7,updating,kr,2,1,꾸,보,NA,NULL,NA,NA,yes
5,2,7,updating,kr,3,3,음,조,NA,NULL,NA,NA,yes
5,2,7,retrieval,kr,1,0,문,문,까;뜻;위;뿌;표;았,효,FALSE,3029.5,no
5,2,7,retrieval,kr,2,3,음,조,까;뜻;위;뿌;표;았,조,TRUE,1413.7000000476837,yes
5,2,7,retrieval,kr,3,5,휴,휴,까;뜻;위;뿌;표;았,보,FALSE,1704.8000001907349,no
5,2,7,retrieval,kr,4,4,큼,르,까;뜻;위;뿌;표;았,문,FALSE,971.5,yes
5,2,7,retrieval,kr,5,2,효,효,까;뜻;위;뿌;표;았,휴,FALSE,852.7999999523163,no
5,2,7,retrieval,kr,6,1,꾸,보,까;뜻;위;뿌;표;았,큼,FALSE,1398.3999998569489,yes
5,2,8,memory,kr,1,0,음,NA,NA,NULL,NA,NA,NA
5,2,8,memory,kr,2,1,조,NA,NA,NULL,NA,NA,NA
5,2,8,memory,kr,3,2,휴,NA,NA,NULL,NA,NA,NA
5,2,8,memory,kr,4,3,까,NA,NA,NULL,NA,NA,NA
5,2,8,memory,kr,5,4,표,NA,NA,NULL,NA,NA,NA
5,2,8,memory,kr,6,5,르,NA,NA,NULL,NA,NA,NA
5,2,8,updating,kr,1,5,르,았,NA,NULL,NA,NA,yes
5,2,8,updating,kr,2,3,까,꾸,NA,NULL,NA,NA,yes
5,2,8,updating,kr,3,2,휴,보,NA,NULL,NA,NA,yes
5,2,8,retrieval,kr,1,5,르,았,효;큼;뜻;뿌;위;문,조,FALSE,998.5,yes
5,2,8,retrieval,kr,2,2,휴,보,효;큼;뜻;뿌;위;문,효,FALSE,573.5,yes
5,2,8,retrieval,kr,3,1,조,조,효;큼;뜻;뿌;위;문,조,TRUE,1055.5999999046326,no
5,2,8,retrieval,kr,4,4,표,표,효;큼;뜻;뿌;위;문,보,FALSE,904.5,no
5,2,8,retrieval,kr,5,3,까,꾸,효;큼;뜻;뿌;위;문,꾸,TRUE,2961.9000000953674,yes
5,2,8,retrieval,kr,6,0,음,음,효;큼;뜻;뿌;위;문,효,FALSE,1449.5,no
5,3,1,memory,kr,1,0,르,NA,NA,NULL,NA,NA,NA
5,3,1,memory,kr,2,1,큼,NA,NA,NULL,NA,NA,NA
5,3,1,memory,kr,3,2,뿌,NA,NA,NULL,NA,NA,NA
5,3,1,memory,kr,4,3,표,NA,NA,NULL,NA,NA,NA
5,3,1,memory,kr,5,4,조,NA,NA,NULL,NA,NA,NA
5,3,1,memory,kr,6,5,문,NA,NA,NULL,NA,NA,NA
5,3,1,updating,kr,1,2,뿌,휴,NA,NULL,NA,NA,yes
5,3,1,updating,kr,2,5,문,보,NA,NULL,NA,NA,yes
5,3,1,updating,kr,3,3,표,았,NA,NULL,NA,NA,yes
5,3,1,retrieval,kr,1,1,큼,큼,음;위;꾸;뜻;효;까,표,FALSE,2253.2000000476837,no
5,3,1,retrieval,kr,2,5,문,보,음;위;꾸;뜻;효;까,효,FALSE,1227.7000000476837,yes
5,3,1,retrieval,kr,3,4,조,조,음;위;꾸;뜻;효;까,조,TRUE,1059.4000000953674,no
5,3,1,retrieval,kr,4,3,표,았,음;위;꾸;뜻;효;까,았,TRUE,928.0999999046326,yes
5,3,1,retrieval,kr,5,2,뿌,휴,음;위;꾸;뜻;효;까,표,FALSE,1187.3000001907349,yes
5,3,1,retrieval,kr,6,0,르,르,음;위;꾸;뜻;효;까,표,FALSE,519.7000000476837,no
5,3,2,memory,kr,1,0,보,NA,NA,NULL,NA,NA,NA
5,3,2,memory,kr,2,1,표,NA,NA,NULL,NA,NA,NA
5,3,2,memory,kr,3,2,효,NA,NA,NULL,NA,NA,NA
5,3,2,memory,kr,4,3,휴,NA,NA,NULL,NA,NA,NA
5,3,2,memory,kr,5,4,르,NA,NA,NULL,NA,NA,NA
5,3,2,memory,kr,6,5,꾸,NA,NA,NULL,NA,NA,NA
5,3,2,updating,kr,1,1,표,큼,NA,NULL,NA,NA,yes
5,3,2,updating,kr,2,3,휴,까,NA,NULL,NA,NA,yes
5,3,2,updating,kr,3,4,르,조,NA,NULL,NA,NA,yes
5,3,2,retrieval,kr,1,2,효,효,뜻;았;문;음;뿌;위,조,FALSE,6631.100000143051,no
5,3,2,retrieval,kr,2,3,휴,까,뜻;았;문;음;뿌;위,까,TRUE,2808.699999809265,yes
5,3,2,retrieval,kr,3,4,르,조,뜻;았;문;음;뿌;위,음,FALSE,2622.7000000476837,yes
5,3,2,retrieval,kr,4,5,꾸,꾸,뜻;았;문;음;뿌;위,까,FALSE,1353.9000000953674,no
5,3,2,retrieval,kr,5,1,표,큼,뜻;았;문;음;뿌;위,큼,TRUE,768.2000000476837,yes
5,3,2,retrieval,kr,6,0,보,보,뜻;았;문;음;뿌;위,문,FALSE,2361.9000000953674,no
5,3,3,memory,kr,1,0,위,NA,NA,NULL,NA,NA,NA
5,3,3,memory,kr,2,1,보,NA,NA,NULL,NA,NA,NA
5,3,3,memory,kr,3,2,효,NA,NA,NULL,NA,NA,NA
5,3,3,memory,kr,4,3,르,NA,NA,NULL,NA,NA,NA
5,3,3,memory,kr,5,4,표,NA,NA,NULL,NA,NA,NA
5,3,3,memory,kr,6,5,뜻,NA,NA,NULL,NA,NA,NA
5,3,3,updating,kr,1,1,보,음,NA,NULL,NA,NA,yes
5,3,3,updating,kr,2,4,표,휴,NA,NULL,NA,NA,yes
5,3,3,updating,kr,3,2,효,꾸,NA,NULL,NA,NA,yes
5,3,3,retrieval,kr,1,5,뜻,뜻,까;았;뿌;조;큼;문,조,FALSE,707.2999999523163,no
5,3,3,retrieval,kr,2,2,효,꾸,까;았;뿌;조;큼;문,꾸,TRUE,3425.4000000953674,yes
5,3,3,retrieval,kr,3,3,르,르,까;았;뿌;조;큼;문,뜻,FALSE,983,no
5,3,3,retrieval,kr,4,1,보,음,까;았;뿌;조;큼;문,보,FALSE,1438.5,yes
5,3,3,retrieval,kr,5,0,위,위,까;았;뿌;조;큼;문,큼,FALSE,778.3000001907349,no
5,3,3,retrieval,kr,6,4,표,휴,까;았;뿌;조;큼;문,휴,TRUE,2678.0999999046326,yes
5,3,4,memory,kr,1,0,았,NA,NA,NULL,NA,NA,NA
5,3,4,memory,kr,2,1,뿌,NA,NA,NULL,NA,NA,NA
5,3,4,memory,kr,3,2,효,NA,NA,NULL,NA,NA,NA
5,3,4,memory,kr,4,3,보,NA,NA,NULL,NA,NA,NA
5,3,4,memory,kr,5,4,휴,NA,NA,NULL,NA,NA,NA
5,3,4,memory,kr,6,5,표,NA,NA,NULL,NA,NA,NA
5,3,4,updating,kr,1,3,보,조,NA,NULL,NA,NA,yes
5,3,4,updating,kr,2,1,뿌,위,NA,NULL,NA,NA,yes
5,3,4,updating,kr,3,2,효,음,NA,NULL,NA,NA,yes
5,3,4,retrieval,kr,1,5,표,표,까;뜻;르;문;큼;꾸,문,FALSE,1424.5999999046326,no
5,3,4,retrieval,kr,2,3,보,조,까;뜻;르;문;큼;꾸,조,TRUE,5275.200000047684,yes
5,3,4,retrieval,kr,3,0,았,았,까;뜻;르;문;큼;꾸,르,FALSE,1103.2999999523163,no
5,3,4,retrieval,kr,4,4,휴,휴,까;뜻;르;문;큼;꾸,조,FALSE,986.7000000476837,no
5,3,4,retrieval,kr,5,2,효,음,까;뜻;르;문;큼;꾸,음,TRUE,1121.3999998569489,yes
5,3,4,retrieval,kr,6,1,뿌,위,까;뜻;르;문;큼;꾸,보,FALSE,1968.1000001430511,yes
5,3,5,memory,kr,1,0,위,NA,NA,NULL,NA,NA,NA
5,3,5,memory,kr,2,1,조,NA,NA,NULL,NA,NA,NA
5,3,5,memory,kr,3,2,음,NA,NA,NULL,NA,NA,NA
5,3,5,memory,kr,4,3,뿌,NA,NA,NULL,NA,NA,NA
5,3,5,memory,kr,5,4,휴,NA,NA,NULL,NA,NA,NA
5,3,5,memory,kr,6,5,효,NA,NA,NULL,NA,NA,NA
5,3,5,updating,kr,1,4,휴,보,NA,NULL,NA,NA,yes
5,3,5,updating,kr,2,2,음,뜻,NA,NULL,NA,NA,yes
5,3,5,updating,kr,3,5,효,큼,NA,NULL,NA,NA,yes
5,3,5,retrieval,kr,1,4,휴,보,았;꾸;까;표;르;문,조,FALSE,632.1999998092651,yes
5,3,5,retrieval,kr,2,2,음,뜻,았;꾸;까;표;르;문,뜻,TRUE,2125.7999999523163,yes
5,3,5,retrieval,kr,3,0,위,위,았;꾸;까;표;르;문,보,FALSE,735.5999999046326,no
5,3,5,retrieval,kr,4,5,효,큼,았;꾸;까;표;르;문,큼,TRUE,2115.5999999046326,yes
5,3,5,retrieval,kr,5,3,뿌,뿌,았;꾸;까;표;르;문,휴,FALSE,1137.7000000476837,no
5,3,5,retrieval,kr,6,1,조,조,았;꾸;까;표;르;문,보,FALSE,1061.7999999523163,no
5,3,6,memory,kr,1,0,르,NA,NA,NULL,NA,NA,NA
5,3,6,memory,kr,2,1,뜻,NA,NA,NULL,NA,NA,NA
5,3,6,memory,kr,3,2,휴,NA,NA,NULL,NA,NA,NA
5,3,6,memory,kr,4,3,보,NA,NA,NULL,NA,NA,NA
5,3,6,memory,kr,5,4,까,NA,NA,NULL,NA,NA,NA
5,3,6,memory,kr,6,5,조,NA,NA,NULL,NA,NA,NA
5,3,6,updating,kr,1,2,휴,뿌,NA,NULL,NA,NA,yes
5,3,6,updating,kr,2,0,르,문,NA,NULL,NA,NA,yes
5,3,6,updating,kr,3,3,보,음,NA,NULL,NA,NA,yes
5,3,6,retrieval,kr,1,0,르,문,표;큼;효;위;꾸;았,문,TRUE,3783.7999999523163,yes
5,3,6,retrieval,kr,2,4,까,까,표;큼;효;위;꾸;았,휴,FALSE,963.7000000476837,no
5,3,6,retrieval,kr,3,5,조,조,표;큼;효;위;꾸;았,문,FALSE,1023.6999998092651,no
5,3,6,retrieval,kr,4,2,휴,뿌,표;큼;효;위;꾸;았,큼,FALSE,1713.8000001907349,yes
5,3,6,retrieval,kr,5,3,보,음,표;큼;효;위;꾸;았,뿌,FALSE,999.7999999523163,yes
5,3,6,retrieval,kr,6,1,뜻,뜻,표;큼;효;위;꾸;았,르,FALSE,1574.7000000476837,no
5,3,7,memory,kr,1,0,음,NA,NA,NULL,NA,NA,NA
5,3,7,memory,kr,2,1,위,NA,NA,NULL,NA,NA,NA
5,3,7,memory,kr,3,2,뿌,NA,NA,NULL,NA,NA,NA
5,3,7,memory,kr,4,3,문,NA,NA,NULL,NA,NA,NA
5,3,7,memory,kr,5,4,뜻,NA,NA,NULL,NA,NA,NA
5,3,7,memory,kr,6,5,휴,NA,NA,NULL,NA,NA,NA
5,3,7,updating,kr,1,3,문,보,NA,NULL,NA,NA,yes
5,3,7,updating,kr,2,2,뿌,았,NA,NULL,NA,NA,yes
5,3,7,updating,kr,3,4,뜻,표,NA,NULL,NA,NA,yes
5,3,7,retrieval,kr,1,0,음,음,조;꾸;효;르;큼;까,조,FALSE,2916.300000190735,no
5,3,7,retrieval,kr,2,5,휴,휴,조;꾸;효;르;큼;까,큼,FALSE,1696,no
5,3,7,retrieval,kr,3,2,뿌,았,조;꾸;효;르;큼;까,위,FALSE,1122.9000000953674,yes
5,3,7,retrieval,kr,4,4,뜻,표,조;꾸;효;르;큼;까,표,TRUE,4464.099999904633,yes
5,3,7,retrieval,kr,5,1,위,위,조;꾸;효;르;큼;까,효,FALSE,948.2999999523163,no
5,3,7,retrieval,kr,6,3,문,보,조;꾸;효;르;큼;까,조,FALSE,522.2000000476837,yes
5,3,8,memory,kr,1,0,표,NA,NA,NULL,NA,NA,NA
5,3,8,memory,kr,2,1,았,NA,NA,NULL,NA,NA,NA
5,3,8,memory,kr,3,2,르,NA,NA,NULL,NA,NA,NA
5,3,8,memory,kr,4,3,뿌,NA,NA,NULL,NA,NA,NA
5,3,8,memory,kr,5,4,휴,NA,NA,NULL,NA,NA,NA
5,3,8,memory,kr,6,5,음,NA,NA,NULL,NA,NA,NA
5,3,8,updating,kr,1,0,표,보,NA,NULL,NA,NA,yes
5,3,8,updating,kr,2,3,뿌,까,NA,NULL,NA,NA,yes
5,3,8,updating,kr,3,4,휴,효,NA,NULL,NA,NA,yes
5,3,8,retrieval,kr,1,1,았,았,뜻;조;위;문;꾸;큼,조,FALSE,1166.2000000476837,no
5,3,8,retrieval,kr,2,4,휴,효,뜻;조;위;문;꾸;큼,효,TRUE,5159.5,yes
5,3,8,retrieval,kr,3,2,르,르,뜻;조;위;문;꾸;큼,표,FALSE,1055.2999999523163,no
5,3,8,retrieval,kr,4,5,음,음,뜻;조;위;문;꾸;큼,보,FALSE,1198.8999998569489,no
5,3,8,retrieval,kr,5,3,뿌,까,뜻;조;위;문;꾸;큼,까,TRUE,2089.7000000476837,yes
5,3,8,retrieval,kr,6,0,표,보,뜻;조;위;문;꾸;큼,큼,FALSE,1319,yes
5,4,1,memory,kr,1,0,꾸,NA,NA,NULL,NA,NA,NA
5,4,1,memory,kr,2,1,보,NA,NA,NULL,NA,NA,NA
5,4,1,memory,kr,3,2,위,NA,NA,NULL,NA,NA,NA
5,4,1,memory,kr,4,3,뜻,NA,NA,NULL,NA,NA,NA
5,4,1,memory,kr,5,4,표,NA,NA,NULL,NA,NA,NA
5,4,1,memory,kr,6,5,았,NA,NA,NULL,NA,NA,NA
5,4,1,updating,kr,1,2,위,뿌,NA,NULL,NA,NA,yes
5,4,1,updating,kr,2,4,표,음,NA,NULL,NA,NA,yes
5,4,1,updating,kr,3,0,꾸,르,NA,NULL,NA,NA,yes
5,4,1,retrieval,kr,1,4,표,음,조;문;까;효;큼;휴,뿌,FALSE,9447,yes
5,4,1,retrieval,kr,2,1,보,보,조;문;까;효;큼;휴,표,FALSE,2387.300000190735,no
5,4,1,retrieval,kr,3,0,꾸,르,조;문;까;효;큼;휴,았,FALSE,951,yes
5,4,1,retrieval,kr,4,2,위,뿌,조;문;까;효;큼;휴,르,FALSE,1445.7000000476837,yes
5,4,1,retrieval,kr,5,3,뜻,뜻,조;문;까;효;큼;휴,큼,FALSE,940.7999999523163,no
5,4,1,retrieval,kr,6,5,았,았,조;문;까;효;큼;휴,보,FALSE,1348.7999999523163,no
5,4,2,memory,kr,1,0,뿌,NA,NA,NULL,NA,NA,NA
5,4,2,memory,kr,2,1,효,NA,NA,NULL,NA,NA,NA
5,4,2,memory,kr,3,2,문,NA,NA,NULL,NA,NA,NA
5,4,2,memory,kr,4,3,표,NA,NA,NULL,NA,NA,NA
5,4,2,memory,kr,5,4,위,NA,NA,NULL,NA,NA,NA
5,4,2,memory,kr,6,5,휴,NA,NA,NULL,NA,NA,NA
5,4,2,updating,kr,1,0,뿌,조,NA,NULL,NA,NA,yes
5,4,2,updating,kr,2,3,표,았,NA,NULL,NA,NA,yes
5,4,2,updating,kr,3,1,효,보,NA,NULL,NA,NA,yes
5,4,2,retrieval,kr,1,2,문,문,큼;뜻;르;꾸;까;음,조,FALSE,720.9000000953674,no
5,4,2,retrieval,kr,2,4,위,위,큼;뜻;르;꾸;까;음,보,FALSE,697.7999999523163,no
5,4,2,retrieval,kr,3,0,뿌,조,큼;뜻;르;꾸;까;음,큼,FALSE,975.5999999046326,yes
5,4,2,retrieval,kr,4,3,표,았,큼;뜻;르;꾸;까;음,뜻,FALSE,2202.5,yes
5,4,2,retrieval,kr,5,1,효,보,큼;뜻;르;꾸;까;음,위,FALSE,2832.600000143051,yes
5,4,2,retrieval,kr,6,5,휴,휴,큼;뜻;르;꾸;까;음,뿌,FALSE,980.8000001907349,no
5,4,3,memory,kr,1,0,표,NA,NA,NULL,NA,NA,NA
5,4,3,memory,kr,2,1,꾸,NA,NA,NULL,NA,NA,NA
5,4,3,memory,kr,3,2,음,NA,NA,NULL,NA,NA,NA
5,4,3,memory,kr,4,3,조,NA,NA,NULL,NA,NA,NA
5,4,3,memory,kr,5,4,까,NA,NA,NULL,NA,NA,NA
5,4,3,memory,kr,6,5,문,NA,NA,NULL,NA,NA,NA
5,4,3,updating,kr,1,3,조,큼,NA,NULL,NA,NA,yes
5,4,3,updating,kr,2,4,까,뿌,NA,NULL,NA,NA,yes
5,4,3,updating,kr,3,0,표,효,NA,NULL,NA,NA,yes
5,4,3,retrieval,kr,1,2,음,음,았;뜻;보;휴;르;위,보,FALSE,813.9000000953674,no
5,4,3,retrieval,kr,2,0,표,효,았;뜻;보;휴;르;위,효,TRUE,8400.600000143051,yes
5,4,3,retrieval,kr,3,3,조,큼,았;뜻;보;휴;르;위,꾸,FALSE,6465.5,yes
5,4,3,retrieval,kr,4,4,까,뿌,았;뜻;보;휴;르;위,뜻,FALSE,561.4000000953674,yes
5,4,3,retrieval,kr,5,5,문,문,았;뜻;보;휴;르;위,큼,FALSE,3055.7000000476837,no
5,4,3,retrieval,kr,6,1,꾸,꾸,았;뜻;보;휴;르;위,르,FALSE,1745.6000001430511,no
5,4,4,memory,kr,1,0,문,NA,NA,NULL,NA,NA,NA
5,4,4,memory,kr,2,1,휴,NA,NA,NULL,NA,NA,NA
5,4,4,memory,kr,3,2,뿌,NA,NA,NULL,NA,NA,NA
5,4,4,memory,kr,4,3,르,NA,NA,NULL,NA,NA,NA
5,4,4,memory,kr,5,4,꾸,NA,NA,NULL,NA,NA,NA
5,4,4,memory,kr,6,5,조,NA,NA,NULL,NA,NA,NA
5,4,4,updating,kr,1,0,문,효,NA,NULL,NA,NA,yes
5,4,4,updating,kr,2,4,꾸,보,NA,NULL,NA,NA,yes
5,4,4,updating,kr,3,5,조,위,NA,NULL,NA,NA,yes
5,4,4,retrieval,kr,1,1,휴,휴,표;뜻;음;았;까;큼,조,FALSE,1439.5,no
5,4,4,retrieval,kr,2,2,뿌,뿌,표;뜻;음;았;까;큼,보,FALSE,1636.2999999523163,no
5,4,4,retrieval,kr,3,3,르,르,표;뜻;음;았;까;큼,문,FALSE,2310.9000000953674,no
5,4,4,retrieval,kr,4,0,문,효,표;뜻;음;았;까;큼,효,TRUE,1861.9000000953674,yes
5,4,4,retrieval,kr,5,4,꾸,보,표;뜻;음;았;까;큼,조,FALSE,2153.2000000476837,yes
5,4,4,retrieval,kr,6,5,조,위,표;뜻;음;았;까;큼,휴,FALSE,2769.2000000476837,yes
5,4,5,memory,kr,1,0,효,NA,NA,NULL,NA,NA,NA
5,4,5,memory,kr,2,1,까,NA,NA,NULL,NA,NA,NA
5,4,5,memory,kr,3,2,뿌,NA,NA,NULL,NA,NA,NA
5,4,5,memory,kr,4,3,큼,NA,NA,NULL,NA,NA,NA
5,4,5,memory,kr,5,4,문,NA,NA,NULL,NA,NA,NA
5,4,5,memory,kr,6,5,르,NA,NA,NULL,NA,NA,NA
5,4,5,updating,kr,1,5,르,표,NA,NULL,NA,NA,yes
5,4,5,updating,kr,2,3,큼,조,NA,NULL,NA,NA,yes
5,4,5,updating,kr,3,4,문,꾸,NA,NULL,NA,NA,yes
5,4,5,retrieval,kr,1,1,까,까,휴;보;뜻;위;음;았,위,FALSE,2016.5,no
5,4,5,retrieval,kr,2,2,뿌,뿌,휴;보;뜻;위;음;았,음,FALSE,975.1999998092651,no
5,4,5,retrieval,kr,3,5,르,표,휴;보;뜻;위;음;았,조,FALSE,6289.399999856949,yes
5,4,5,retrieval,kr,4,4,문,꾸,휴;보;뜻;위;음;았,보,FALSE,2930,yes
5,4,5,retrieval,kr,5,0,효,효,휴;보;뜻;위;음;았,효,TRUE,2462.2999999523163,no
5,4,5,retrieval,kr,6,3,큼,조,휴;보;뜻;위;음;았,뿌,FALSE,857.5,yes
5,4,6,memory,kr,1,0,음,NA,NA,NULL,NA,NA,NA
5,4,6,memory,kr,2,1,큼,NA,NA,NULL,NA,NA,NA
5,4,6,memory,kr,3,2,조,NA,NA,NULL,NA,NA,NA
5,4,6,memory,kr,4,3,문,NA,NA,NULL,NA,NA,NA
5,4,6,memory,kr,5,4,꾸,NA,NA,NULL,NA,NA,NA
5,4,6,memory,kr,6,5,위,NA,NA,NULL,NA,NA,NA
5,4,6,updating,kr,1,5,위,보,NA,NULL,NA,NA,yes
5,4,6,updating,kr,2,4,꾸,았,NA,NULL,NA,NA,yes
5,4,6,updating,kr,3,3,문,르,NA,NULL,NA,NA,yes
5,4,6,retrieval,kr,1,1,큼,큼,표;휴;까;효;뿌;뜻,보,FALSE,1927.2999999523163,no
5,4,6,retrieval,kr,2,2,조,조,표;휴;까;효;뿌;뜻,았,FALSE,1186.7000000476837,no
5,4,6,retrieval,kr,3,4,꾸,았,표;휴;까;효;뿌;뜻,표,FALSE,670.4000000953674,yes
5,4,6,retrieval,kr,4,0,음,음,표;휴;까;효;뿌;뜻,르,FALSE,632.7000000476837,no
5,4,6,retrieval,kr,5,5,위,보,표;휴;까;효;뿌;뜻,조,FALSE,3198.800000190735,yes
5,4,6,retrieval,kr,6,3,문,르,표;휴;까;효;뿌;뜻,보,FALSE,1716,yes
5,4,7,memory,kr,1,0,큼,NA,NA,NULL,NA,NA,NA
5,4,7,memory,kr,2,1,음,NA,NA,NULL,NA,NA,NA
5,4,7,memory,kr,3,2,까,NA,NA,NULL,NA,NA,NA
5,4,7,memory,kr,4,3,효,NA,NA,NULL,NA,NA,NA
5,4,7,memory,kr,5,4,보,NA,NA,NULL,NA,NA,NA
5,4,7,memory,kr,6,5,표,NA,NA,NULL,NA,NA,NA
5,4,7,updating,kr,1,1,음,문,NA,NULL,NA,NA,yes
5,4,7,updating,kr,2,5,표,뿌,NA,NULL,NA,NA,yes
5,4,7,updating,kr,3,3,효,았,NA,NULL,NA,NA,yes
5,4,7,retrieval,kr,1,5,표,뿌,조;르;뜻;위;꾸;휴,표,FALSE,5965,yes
5,4,7,retrieval,kr,2,0,큼,큼,조;르;뜻;위;꾸;휴,르,FALSE,1086.2000000476837,no
5,4,7,retrieval,kr,3,4,보,보,조;르;뜻;위;꾸;휴,까,FALSE,481.2000000476837,no
5,4,7,retrieval,kr,4,1,음,문,조;르;뜻;위;꾸;휴,음,FALSE,635.3999998569489,yes
5,4,7,retrieval,kr,5,3,효,았,조;르;뜻;위;꾸;휴,았,TRUE,4129.799999952316,yes
5,4,7,retrieval,kr,6,2,까,까,조;르;뜻;위;꾸;휴,조,FALSE,640.6000001430511,no
5,4,8,memory,kr,1,0,휴,NA,NA,NULL,NA,NA,NA
5,4,8,memory,kr,2,1,큼,NA,NA,NULL,NA,NA,NA
5,4,8,memory,kr,3,2,뿌,NA,NA,NULL,NA,NA,NA
5,4,8,memory,kr,4,3,보,NA,NA,NULL,NA,NA,NA
5,4,8,memory,kr,5,4,음,NA,NA,NULL,NA,NA,NA
5,4,8,memory,kr,6,5,뜻,NA,NA,NULL,NA,NA,NA
5,4,8,updating,kr,1,0,휴,위,NA,NULL,NA,NA,yes
5,4,8,updating,kr,2,5,뜻,표,NA,NULL,NA,NA,yes
5,4,8,updating,kr,3,4,음,조,NA,NULL,NA,NA,yes
5,4,8,retrieval,kr,1,2,뿌,뿌,르;았;효;문;꾸;까,조,FALSE,970.4000000953674,no
5,4,8,retrieval,kr,2,3,보,보,르;았;효;문;꾸;까,보,TRUE,412.90000009536743,no
5,4,8,retrieval,kr,3,0,휴,위,르;았;효;문;꾸;까,표,FALSE,1966.3999998569489,yes
5,4,8,retrieval,kr,4,1,큼,큼,르;았;효;문;꾸;까,까,FALSE,1055.5999999046326,no
5,4,8,retrieval,kr,5,4,음,조,르;았;효;문;꾸;까,조,TRUE,5379.5,yes
5,4,8,retrieval,kr,6,5,뜻,표,르;았;효;문;꾸;까,효,FALSE,803.7999999523163,yes
5,5,1,memory,kr,1,0,보,NA,NA,NULL,NA,NA,NA
5,5,1,memory,kr,2,1,조,NA,NA,NULL,NA,NA,NA
5,5,1,memory,kr,3,2,까,NA,NA,NULL,NA,NA,NA
5,5,1,memory,kr,4,3,르,NA,NA,NULL,NA,NA,NA
5,5,1,memory,kr,5,4,음,NA,NA,NULL,NA,NA,NA
5,5,1,memory,kr,6,5,위,NA,NA,NULL,NA,NA,NA
5,5,1,updating,kr,1,0,보,뜻,NA,NULL,NA,NA,yes
5,5,1,updating,kr,2,2,까,문,NA,NULL,NA,NA,yes
5,5,1,updating,kr,3,5,위,큼,NA,NULL,NA,NA,yes
5,5,1,retrieval,kr,1,1,조,조,았;효;뿌;휴;표;꾸,까,FALSE,2240.7000000476837,no
5,5,1,retrieval,kr,2,2,까,문,았;효;뿌;휴;표;꾸,큼,FALSE,1038.2000000476837,yes
5,5,1,retrieval,kr,3,5,위,큼,았;효;뿌;휴;표;꾸,보,FALSE,598.7999999523163,yes
5,5,1,retrieval,kr,4,4,음,음,았;효;뿌;휴;표;꾸,조,FALSE,984,no
5,5,1,retrieval,kr,5,3,르,르,았;효;뿌;휴;표;꾸,문,FALSE,1374.7000000476837,no
5,5,1,retrieval,kr,6,0,보,뜻,았;효;뿌;휴;표;꾸,휴,FALSE,576.5,yes
5,5,2,memory,kr,1,0,효,NA,NA,NULL,NA,NA,NA
5,5,2,memory,kr,2,1,표,NA,NA,NULL,NA,NA,NA
5,5,2,memory,kr,3,2,문,NA,NA,NULL,NA,NA,NA
5,5,2,memory,kr,4,3,았,NA,NA,NULL,NA,NA,NA
5,5,2,memory,kr,5,4,뿌,NA,NA,NULL,NA,NA,NA
5,5,2,memory,kr,6,5,조,NA,NA,NULL,NA,NA,NA
5,5,2,updating,kr,1,0,효,르,NA,NULL,NA,NA,yes
5,5,2,updating,kr,2,2,문,음,NA,NULL,NA,NA,yes
5,5,2,updating,kr,3,3,았,뜻,NA,NULL,NA,NA,yes
5,5,2,retrieval,kr,1,2,문,음,큼;위;꾸;보;까;휴,뜻,FALSE,3484.0999999046326,yes
5,5,2,retrieval,kr,2,5,조,조,큼;위;꾸;보;까;휴,뜻,FALSE,532.2999999523163,no
5,5,2,retrieval,kr,3,4,뿌,뿌,큼;위;꾸;보;까;휴,문,FALSE,1087,no
5,5,2,retrieval,kr,4,3,았,뜻,큼;위;꾸;보;까;휴,뜻,TRUE,530.6000001430511,yes
5,5,2,retrieval,kr,5,0,효,르,큼;위;꾸;보;까;휴,큼,FALSE,9391.900000095367,yes
5,5,2,retrieval,kr,6,1,표,표,큼;위;꾸;보;까;휴,까,FALSE,1005.1999998092651,no
5,5,3,memory,kr,1,0,뿌,NA,NA,NULL,NA,NA,NA
5,5,3,memory,kr,2,1,보,NA,NA,NULL,NA,NA,NA
5,5,3,memory,kr,3,2,까,NA,NA,NULL,NA,NA,NA
5,5,3,memory,kr,4,3,휴,NA,NA,NULL,NA,NA,NA
5,5,3,memory,kr,5,4,뜻,NA,NA,NULL,NA,NA,NA
5,5,3,memory,kr,6,5,큼,NA,NA,NULL,NA,NA,NA
5,5,3,updating,kr,1,2,까,음,NA,NULL,NA,NA,yes
5,5,3,updating,kr,2,4,뜻,표,NA,NULL,NA,NA,yes
5,5,3,updating,kr,3,1,보,효,NA,NULL,NA,NA,yes
5,5,3,retrieval,kr,1,5,큼,큼,조;꾸;았;르;문;위,효,FALSE,761.7000000476837,no
5,5,3,retrieval,kr,2,3,휴,휴,조;꾸;았;르;문;위,조,FALSE,711.2000000476837,no
5,5,3,retrieval,kr,3,2,까,음,조;꾸;았;르;문;위,보,FALSE,1040.2000000476837,yes
5,5,3,retrieval,kr,4,1,보,효,조;꾸;았;르;문;위,효,TRUE,749.7999999523163,yes
5,5,3,retrieval,kr,5,4,뜻,표,조;꾸;았;르;문;위,표,TRUE,2518.5999999046326,yes
5,5,3,retrieval,kr,6,0,뿌,뿌,조;꾸;았;르;문;위,르,FALSE,1108.7000000476837,no
5,5,4,memory,kr,1,0,음,NA,NA,NULL,NA,NA,NA
5,5,4,memory,kr,2,1,르,NA,NA,NULL,NA,NA,NA
5,5,4,memory,kr,3,2,위,NA,NA,NULL,NA,NA,NA
5,5,4,memory,kr,4,3,까,NA,NA,NULL,NA,NA,NA
5,5,4,memory,kr,5,4,문,NA,NA,NULL,NA,NA,NA
5,5,4,memory,kr,6,5,보,NA,NA,NULL,NA,NA,NA
5,5,4,updating,kr,1,0,음,표,NA,NULL,NA,NA,yes
5,5,4,updating,kr,2,5,보,큼,NA,NULL,NA,NA,yes
5,5,4,updating,kr,3,4,문,뜻,NA,NULL,NA,NA,yes
5,5,4,retrieval,kr,1,0,음,표,휴;효;조;뿌;꾸;았,보,FALSE,1236.5,yes
5,5,4,retrieval,kr,2,4,문,뜻,휴;효;조;뿌;꾸;았,큼,FALSE,500.09999990463257,yes
5,5,4,retrieval,kr,3,5,보,큼,휴;효;조;뿌;꾸;았,큼,TRUE,3926.2000000476837,yes
5,5,4,retrieval,kr,4,2,위,위,휴;효;조;뿌;꾸;았,표,FALSE,1249.7000000476837,no
5,5,4,retrieval,kr,5,3,까,까,휴;효;조;뿌;꾸;았,효,FALSE,734.2999999523163,no
5,5,4,retrieval,kr,6,1,르,르,휴;효;조;뿌;꾸;았,조,FALSE,827.7999999523163,no
5,5,5,memory,kr,1,0,았,NA,NA,NULL,NA,NA,NA
5,5,5,memory,kr,2,1,꾸,NA,NA,NULL,NA,NA,NA
5,5,5,memory,kr,3,2,보,NA,NA,NULL,NA,NA,NA
5,5,5,memory,kr,4,3,효,NA,NA,NULL,NA,NA,NA
5,5,5,memory,kr,5,4,뿌,NA,NA,NULL,NA,NA,NA
5,5,5,memory,kr,6,5,표,NA,NA,NULL,NA,NA,NA
5,5,5,updating,kr,1,0,았,음,NA,NULL,NA,NA,yes
5,5,5,updating,kr,2,4,뿌,르,NA,NULL,NA,NA,yes
5,5,5,updating,kr,3,5,표,문,NA,NULL,NA,NA,yes
5,5,5,retrieval,kr,1,3,효,효,위;뜻;큼;까;조;휴,보,FALSE,1603.5,no
5,5,5,retrieval,kr,2,5,표,문,위;뜻;큼;까;조;휴,큼,FALSE,586.7000000476837,yes
5,5,5,retrieval,kr,3,4,뿌,르,위;뜻;큼;까;조;휴,조,FALSE,1073.2999999523163,yes
5,5,5,retrieval,kr,4,2,보,보,위;뜻;큼;까;조;휴,효,FALSE,598.6000001430511,no
5,5,5,retrieval,kr,5,1,꾸,꾸,위;뜻;큼;까;조;휴,았,FALSE,557.1000001430511,no
5,5,5,retrieval,kr,6,0,았,음,위;뜻;큼;까;조;휴,표,FALSE,682,yes
5,5,6,memory,kr,1,0,뜻,NA,NA,NULL,NA,NA,NA
5,5,6,memory,kr,2,1,음,NA,NA,NULL,NA,NA,NA
5,5,6,memory,kr,3,2,까,NA,NA,NULL,NA,NA,NA
5,5,6,memory,kr,4,3,꾸,NA,NA,NULL,NA,NA,NA
5,5,6,memory,kr,5,4,큼,NA,NA,NULL,NA,NA,NA
5,5,6,memory,kr,6,5,르,NA,NA,NULL,NA,NA,NA
5,5,6,updating,kr,1,1,음,뿌,NA,NULL,NA,NA,yes
5,5,6,updating,kr,2,4,큼,조,NA,NULL,NA,NA,yes
5,5,6,updating,kr,3,2,까,효,NA,NULL,NA,NA,yes
5,5,6,retrieval,kr,1,0,뜻,뜻,위;았;문;휴;보;표,휴,FALSE,1563.6999998092651,no
5,5,6,retrieval,kr,2,5,르,르,위;았;문;휴;보;표,위,FALSE,1481.1000001430511,no
5,5,6,retrieval,kr,3,1,음,뿌,위;았;문;휴;보;표,뿌,TRUE,652.2000000476837,yes
5,5,6,retrieval,kr,4,3,꾸,꾸,위;았;문;휴;보;표,효,FALSE,5492.700000047684,no
5,5,6,retrieval,kr,5,4,큼,조,위;았;문;휴;보;표,조,TRUE,612.5,yes
5,5,6,retrieval,kr,6,2,까,효,위;았;문;휴;보;표,조,FALSE,1692.5999999046326,yes
5,5,7,memory,kr,1,0,뜻,NA,NA,NULL,NA,NA,NA
5,5,7,memory,kr,2,1,큼,NA,NA,NULL,NA,NA,NA
5,5,7,memory,kr,3,2,까,NA,NA,NULL,NA,NA,NA
5,5,7,memory,kr,4,3,꾸,NA,NA,NULL,NA,NA,NA
5,5,7,memory,kr,5,4,표,NA,NA,NULL,NA,NA,NA
5,5,7,memory,kr,6,5,음,NA,NA,NULL,NA,NA,NA
5,5,7,updating,kr,1,4,표,르,NA,NULL,NA,NA,yes
5,5,7,updating,kr,2,1,큼,았,NA,NULL,NA,NA,yes
5,5,7,updating,kr,3,0,뜻,문,NA,NULL,NA,NA,yes
5,5,7,retrieval,kr,1,4,표,르,조;위;뿌;휴;효;보,르,TRUE,4098.200000047684,yes
5,5,7,retrieval,kr,2,1,큼,았,조;위;뿌;휴;효;보,뜻,FALSE,4393.799999952316,yes
5,5,7,retrieval,kr,3,0,뜻,문,조;위;뿌;휴;효;보,위,FALSE,7329.299999952316,yes
5,5,7,retrieval,kr,4,5,음,음,조;위;뿌;휴;효;보,큼,FALSE,795,no
5,5,7,retrieval,kr,5,3,꾸,꾸,조;위;뿌;휴;효;보,까,FALSE,618.0999999046326,no
5,5,7,retrieval,kr,6,2,까,까,조;위;뿌;휴;효;보,르,FALSE,897.2999999523163,no
5,5,8,memory,kr,1,0,르,NA,NA,NULL,NA,NA,NA
5,5,8,memory,kr,2,1,표,NA,NA,NULL,NA,NA,NA
5,5,8,memory,kr,3,2,았,NA,NA,NULL,NA,NA,NA
5,5,8,memory,kr,4,3,꾸,NA,NA,NULL,NA,NA,NA
5,5,8,memory,kr,5,4,휴,NA,NA,NULL,NA,NA,NA
5,5,8,memory,kr,6,5,조,NA,NA,NULL,NA,NA,NA
5,5,8,updating,kr,1,2,았,효,NA,NULL,NA,NA,yes
5,5,8,updating,kr,2,4,휴,까,NA,NULL,NA,NA,yes
5,5,8,updating,kr,3,3,꾸,큼,NA,NULL,NA,NA,yes
5,5,8,retrieval,kr,1,2,았,효,뜻;보;음;뿌;문;위,큼,FALSE,2726.5,yes
5,5,8,retrieval,kr,2,1,표,표,뜻;보;음;뿌;문;위,위,FALSE,815.7000000476837,no
5,5,8,retrieval,kr,3,5,조,조,뜻;보;음;뿌;문;위,뿌,FALSE,826.7999999523163,no
5,5,8,retrieval,kr,4,3,꾸,큼,뜻;보;음;뿌;문;위,조,FALSE,1039.0999999046326,yes
5,5,8,retrieval,kr,5,0,르,르,뜻;보;음;뿌;문;위,르,TRUE,582.5,no
5,5,8,retrieval,kr,6,4,휴,까,뜻;보;음;뿌;문;위,효,FALSE,681.9000000953674,yes
8,1,1,memory,kr,1,0,효,NA,NA,NULL,NA,NA,NA
8,1,1,memory,kr,2,1,뜻,NA,NA,NULL,NA,NA,NA
8,1,1,memory,kr,3,2,꾸,NA,NA,NULL,NA,NA,NA
8,1,1,memory,kr,4,3,큼,NA,NA,NULL,NA,NA,NA
8,1,1,memory,kr,5,4,문,NA,NA,NULL,NA,NA,NA
8,1,1,memory,kr,6,5,르,NA,NA,NULL,NA,NA,NA
8,1,1,updating,kr,1,2,꾸,뿌,NA,NULL,NA,NA,yes
8,1,1,updating,kr,2,0,효,조,NA,NULL,NA,NA,yes
8,1,1,updating,kr,3,3,큼,위,NA,NULL,NA,NA,yes
8,1,1,retrieval,kr,1,5,르,르,휴;았;음;보;표;까,르,TRUE,6982.099999997765,no
8,1,1,retrieval,kr,2,1,뜻,뜻,휴;았;음;보;표;까,뜻,TRUE,4786.5,no
8,1,1,retrieval,kr,3,2,꾸,뿌,휴;았;음;보;표;까,뿌,TRUE,6043,yes
8,1,1,retrieval,kr,4,4,문,문,휴;았;음;보;표;까,음,FALSE,4602.5,no
8,1,1,retrieval,kr,5,3,큼,위,휴;았;음;보;표;까,큼,FALSE,6361.900000002235,yes
8,1,1,retrieval,kr,6,0,효,조,휴;았;음;보;표;까,효,FALSE,4186.800000000745,yes
8,1,2,memory,kr,1,0,뜻,NA,NA,NULL,NA,NA,NA
8,1,2,memory,kr,2,1,뿌,NA,NA,NULL,NA,NA,NA
8,1,2,memory,kr,3,2,조,NA,NA,NULL,NA,NA,NA
8,1,2,memory,kr,4,3,았,NA,NA,NULL,NA,NA,NA
8,1,2,memory,kr,5,4,표,NA,NA,NULL,NA,NA,NA
8,1,2,memory,kr,6,5,르,NA,NA,NULL,NA,NA,NA
8,1,2,updating,kr,1,4,표,보,NA,NULL,NA,NA,yes
8,1,2,updating,kr,2,2,조,위,NA,NULL,NA,NA,yes
8,1,2,updating,kr,3,1,뿌,큼,NA,NULL,NA,NA,yes
8,1,2,retrieval,kr,1,2,조,위,효;음;꾸;휴;문;까,조,FALSE,4499.699999999255,yes
8,1,2,retrieval,kr,2,0,뜻,뜻,효;음;꾸;휴;문;까,뜻,TRUE,7236.89999999851,no
8,1,2,retrieval,kr,3,5,르,르,효;음;꾸;휴;문;까,르,TRUE,7888.099999997765,no
8,1,2,retrieval,kr,4,1,뿌,큼,효;음;꾸;휴;문;까,뿌,FALSE,4395.5,yes
8,1,2,retrieval,kr,5,4,표,보,효;음;꾸;휴;문;까,보,TRUE,12490.300000000745,yes
8,1,2,retrieval,kr,6,3,았,았,효;음;꾸;휴;문;까,큼,FALSE,8288.900000002235,no
8,1,3,memory,kr,1,0,음,NA,NA,NULL,NA,NA,NA
8,1,3,memory,kr,2,1,보,NA,NA,NULL,NA,NA,NA
8,1,3,memory,kr,3,2,까,NA,NA,NULL,NA,NA,NA
8,1,3,memory,kr,4,3,휴,NA,NA,NULL,NA,NA,NA
8,1,3,memory,kr,5,4,효,NA,NA,NULL,NA,NA,NA
8,1,3,memory,kr,6,5,뿌,NA,NA,NULL,NA,NA,NA
8,1,3,updating,kr,1,3,휴,위,NA,NULL,NA,NA,yes
8,1,3,updating,kr,2,0,음,표,NA,NULL,NA,NA,yes
8,1,3,updating,kr,3,1,보,르,NA,NULL,NA,NA,yes
8,1,3,retrieval,kr,1,1,보,르,문;뜻;꾸;큼;조;았,르,TRUE,2496.2000000029802,yes
8,1,3,retrieval,kr,2,2,까,까,문;뜻;꾸;큼;조;았,까,TRUE,3495.5,no
8,1,3,retrieval,kr,3,4,효,효,문;뜻;꾸;큼;조;았,표,FALSE,7249.60000000149,no
8,1,3,retrieval,kr,4,5,뿌,뿌,문;뜻;꾸;큼;조;았,르,FALSE,3654.800000000745,no
8,1,3,retrieval,kr,5,0,음,표,문;뜻;꾸;큼;조;았,보,FALSE,8048.800000000745,yes
8,1,3,retrieval,kr,6,3,휴,위,문;뜻;꾸;큼;조;았,꾸,FALSE,6456.79999999702,yes
8,1,4,memory,kr,1,0,음,NA,NA,NULL,NA,NA,NA
8,1,4,memory,kr,2,1,꾸,NA,NA,NULL,NA,NA,NA
8,1,4,memory,kr,3,2,조,NA,NA,NULL,NA,NA,NA
8,1,4,memory,kr,4,3,뜻,NA,NA,NULL,NA,NA,NA
8,1,4,memory,kr,5,4,았,NA,NA,NULL,NA,NA,NA
8,1,4,memory,kr,6,5,위,NA,NA,NULL,NA,NA,NA
8,1,4,updating,kr,1,1,꾸,문,NA,NULL,NA,NA,yes
8,1,4,updating,kr,2,3,뜻,큼,NA,NULL,NA,NA,yes
8,1,4,updating,kr,3,0,음,효,NA,NULL,NA,NA,yes
8,1,4,retrieval,kr,1,3,뜻,큼,르;보;까;표;휴;뿌,위,FALSE,7393.70000000298,yes
8,1,4,retrieval,kr,2,4,았,았,르;보;까;표;휴;뿌,았,TRUE,3754.599999997765,no
8,1,4,retrieval,kr,3,1,꾸,문,르;보;까;표;휴;뿌,위,FALSE,5748,yes
8,1,4,retrieval,kr,4,5,위,위,르;보;까;표;휴;뿌,표,FALSE,6956.29999999702,no
8,1,4,retrieval,kr,5,0,음,효,르;보;까;표;휴;뿌,음,FALSE,2980.300000000745,yes
8,1,4,retrieval,kr,6,2,조,조,르;보;까;표;휴;뿌,조,TRUE,3871.300000000745,no
8,1,5,memory,kr,1,0,꾸,NA,NA,NULL,NA,NA,NA
8,1,5,memory,kr,2,1,뜻,NA,NA,NULL,NA,NA,NA
8,1,5,memory,kr,3,2,효,NA,NA,NULL,NA,NA,NA
8,1,5,memory,kr,4,3,까,NA,NA,NULL,NA,NA,NA
8,1,5,memory,kr,5,4,뿌,NA,NA,NULL,NA,NA,NA
8,1,5,memory,kr,6,5,표,NA,NA,NULL,NA,NA,NA
8,1,5,updating,kr,1,0,꾸,문,NA,NULL,NA,NA,yes
8,1,5,updating,kr,2,1,뜻,았,NA,NULL,NA,NA,yes
8,1,5,updating,kr,3,4,뿌,위,NA,NULL,NA,NA,yes
8,1,5,retrieval,kr,1,3,까,까,보;큼;휴;음;조;르,위,FALSE,3954.800000000745,no
8,1,5,retrieval,kr,2,4,뿌,위,보;큼;휴;음;조;르,위,TRUE,5476,yes
8,1,5,retrieval,kr,3,0,꾸,문,보;큼;휴;음;조;르,꾸,FALSE,2740.39999999851,yes
8,1,5,retrieval,kr,4,5,표,표,보;큼;휴;음;조;르,보,FALSE,5734.300000000745,no
8,1,5,retrieval,kr,5,2,효,효,보;큼;휴;음;조;르,효,TRUE,1527.300000000745,no
8,1,5,retrieval,kr,6,1,뜻,았,보;큼;휴;음;조;르,았,TRUE,3691.2999999970198,yes
8,1,6,memory,kr,1,0,르,NA,NA,NULL,NA,NA,NA
8,1,6,memory,kr,2,1,큼,NA,NA,NULL,NA,NA,NA
8,1,6,memory,kr,3,2,까,NA,NA,NULL,NA,NA,NA
8,1,6,memory,kr,4,3,조,NA,NA,NULL,NA,NA,NA
8,1,6,memory,kr,5,4,보,NA,NA,NULL,NA,NA,NA
8,1,6,memory,kr,6,5,뜻,NA,NA,NULL,NA,NA,NA
8,1,6,updating,kr,1,5,뜻,표,NA,NULL,NA,NA,yes
8,1,6,updating,kr,2,0,르,문,NA,NULL,NA,NA,yes
8,1,6,updating,kr,3,2,까,휴,NA,NULL,NA,NA,yes
8,1,6,retrieval,kr,1,4,보,보,효;위;았;꾸;음;뿌,꾸,FALSE,6293.099999997765,no
8,1,6,retrieval,kr,2,2,까,휴,효;위;았;꾸;음;뿌,뿌,FALSE,5457.400000002235,yes
8,1,6,retrieval,kr,3,5,뜻,표,효;위;았;꾸;음;뿌,표,TRUE,2461.699999999255,yes
8,1,6,retrieval,kr,4,3,조,조,효;위;았;꾸;음;뿌,르,FALSE,10835.199999999255,no
8,1,6,retrieval,kr,5,1,큼,큼,효;위;았;꾸;음;뿌,보,FALSE,3590.2999999970198,no
8,1,6,retrieval,kr,6,0,르,문,효;위;았;꾸;음;뿌,효,FALSE,1932.2000000029802,yes
8,1,7,memory,kr,1,0,위,NA,NA,NULL,NA,NA,NA
8,1,7,memory,kr,2,1,까,NA,NA,NULL,NA,NA,NA
8,1,7,memory,kr,3,2,뜻,NA,NA,NULL,NA,NA,NA
8,1,7,memory,kr,4,3,르,NA,NA,NULL,NA,NA,NA
8,1,7,memory,kr,5,4,았,NA,NA,NULL,NA,NA,NA
8,1,7,memory,kr,6,5,보,NA,NA,NULL,NA,NA,NA
8,1,7,updating,kr,1,3,르,음,NA,NULL,NA,NA,yes
8,1,7,updating,kr,2,2,뜻,효,NA,NULL,NA,NA,yes
8,1,7,updating,kr,3,0,위,꾸,NA,NULL,NA,NA,yes
8,1,7,retrieval,kr,1,4,았,았,휴;큼;표;조;뿌;문,보,FALSE,9709,no
8,1,7,retrieval,kr,2,0,위,꾸,휴;큼;표;조;뿌;문,큼,FALSE,4002,yes
8,1,7,retrieval,kr,3,5,보,보,휴;큼;표;조;뿌;문,음,FALSE,2584.699999999255,no
8,1,7,retrieval,kr,4,1,까,까,휴;큼;표;조;뿌;문,뜻,FALSE,6711.099999997765,no
8,1,7,retrieval,kr,5,2,뜻,효,휴;큼;표;조;뿌;문,효,TRUE,4359.39999999851,yes
8,1,7,retrieval,kr,6,3,르,음,휴;큼;표;조;뿌;문,음,TRUE,802.9000000022352,yes
8,1,8,memory,kr,1,0,큼,NA,NA,NULL,NA,NA,NA
8,1,8,memory,kr,2,1,표,NA,NA,NULL,NA,NA,NA
8,1,8,memory,kr,3,2,휴,NA,NA,NULL,NA,NA,NA
8,1,8,memory,kr,4,3,조,NA,NA,NULL,NA,NA,NA
8,1,8,memory,kr,5,4,문,NA,NA,NULL,NA,NA,NA
8,1,8,memory,kr,6,5,뿌,NA,NA,NULL,NA,NA,NA
8,1,8,updating,kr,1,4,문,위,NA,NULL,NA,NA,yes
8,1,8,updating,kr,2,0,큼,뜻,NA,NULL,NA,NA,yes
8,1,8,updating,kr,3,2,휴,까,NA,NULL,NA,NA,yes
8,1,8,retrieval,kr,1,4,문,위,르;꾸;보;음;효;았,표,FALSE,2754.800000000745,yes
8,1,8,retrieval,kr,2,2,휴,까,르;꾸;보;음;효;았,까,TRUE,1884.0999999977648,yes
8,1,8,retrieval,kr,3,0,큼,뜻,르;꾸;보;음;효;았,뜻,TRUE,1486.7000000029802,yes
8,1,8,retrieval,kr,4,5,뿌,뿌,르;꾸;보;음;효;았,음,FALSE,3441.099999997765,no
8,1,8,retrieval,kr,5,1,표,표,르;꾸;보;음;효;았,조,FALSE,5462.800000000745,no
8,1,8,retrieval,kr,6,3,조,조,르;꾸;보;음;효;았,꾸,FALSE,1117.8999999985099,no
8,2,1,memory,kr,1,0,뜻,NA,NA,NULL,NA,NA,NA
8,2,1,memory,kr,2,1,까,NA,NA,NULL,NA,NA,NA
8,2,1,memory,kr,3,2,르,NA,NA,NULL,NA,NA,NA
8,2,1,memory,kr,4,3,위,NA,NA,NULL,NA,NA,NA
8,2,1,memory,kr,5,4,문,NA,NA,NULL,NA,NA,NA
8,2,1,memory,kr,6,5,보,NA,NA,NULL,NA,NA,NA
8,2,1,updating,kr,1,4,문,휴,NA,NULL,NA,NA,yes
