participant,block,trial,screenID,condition,stepID,position,initial_item,final_item,npl_items,answer,acc,rt,updPos
3,1,1,memory,kr,1,0,럼,NA,NA,NULL,NA,NA,NA
3,1,1,memory,kr,2,1,알,NA,NA,NULL,NA,NA,NA
3,1,1,memory,kr,3,2,본,NA,NA,NULL,NA,NA,NA
3,1,1,memory,kr,4,3,료,NA,NA,NULL,NA,NA,NA
3,1,1,memory,kr,5,4,워,NA,NA,NULL,NA,NA,NA
3,1,1,memory,kr,6,5,디,NA,NA,NULL,NA,NA,NA
3,1,1,updating,kr,1,4,워,르,NA,NULL,NA,NA,yes
3,1,1,updating,kr,2,5,디,탄,NA,NULL,NA,NA,yes
3,1,1,updating,kr,3,0,럼,여,NA,NULL,NA,NA,yes
3,1,1,retrieval,kr,1,2,본,본,"웠,교,안,입,때,질",안,FALSE,7102,no
3,1,1,retrieval,kr,2,4,워,르,"웠,교,안,입,때,질",탄,FALSE,1175,yes
3,1,1,retrieval,kr,3,1,알,알,"웠,교,안,입,때,질",NULL,FALSE,NA,no
3,1,1,retrieval,kr,4,0,럼,여,"웠,교,안,입,때,질",알,FALSE,2614,yes
3,1,1,retrieval,kr,5,3,료,료,"웠,교,안,입,때,질",르,FALSE,4995,no
3,1,1,retrieval,kr,6,5,디,탄,"웠,교,안,입,때,질",안,FALSE,6720,yes
3,1,1,debrief,kr,NA,NA,NA,NA,NA,NULL,NA,NA,NA
3,1,2,memory,kr,1,0,중,NA,NA,NULL,NA,NA,NA
3,1,2,memory,kr,2,1,경,NA,NA,NULL,NA,NA,NA
3,1,2,memory,kr,3,2,소,NA,NA,NULL,NA,NA,NA
3,1,2,memory,kr,4,3,갈,NA,NA,NULL,NA,NA,NA
3,1,2,memory,kr,5,4,사,NA,NA,NULL,NA,NA,NA
3,1,2,memory,kr,6,5,태,NA,NA,NULL,NA,NA,NA
3,1,2,updating,kr,1,2,소,박,NA,NULL,NA,NA,yes
3,1,2,updating,kr,2,4,사,구,NA,NULL,NA,NA,yes
3,1,2,updating,kr,3,1,경,철,NA,NULL,NA,NA,yes
3,1,2,retrieval,kr,1,4,사,구,"흔,혹,잡,권,쇄,심",구,TRUE,3925.0000000001164,yes
3,1,2,retrieval,kr,2,3,갈,갈,"흔,혹,잡,권,쇄,심",소,FALSE,1128,no
3,1,2,retrieval,kr,3,0,중,중,"흔,혹,잡,권,쇄,심",경,FALSE,7357,no
3,1,2,retrieval,kr,4,5,태,태,"흔,혹,잡,권,쇄,심",흔,FALSE,8140,no
3,1,2,retrieval,kr,5,2,소,박,"흔,혹,잡,권,쇄,심",경,FALSE,10444,yes
3,1,2,retrieval,kr,6,1,경,철,"흔,혹,잡,권,쇄,심",태,FALSE,1211,yes
3,1,2,debrief,kr,NA,NA,NA,NA,NA,NULL,NA,NA,NA
3,1,3,memory,kr,1,0,예,NA,NA,NULL,NA,NA,NA
3,1,3,memory,kr,2,1,도,NA,NA,NULL,NA,NA,NA
3,1,3,memory,kr,3,2,국,NA,NA,NULL,NA,NA,NA
3,1,3,memory,kr,4,3,른,NA,NA,NULL,NA,NA,NA
3,1,3,memory,kr,5,4,선,NA,NA,NULL,NA,NA,NA
3,1,3,memory,kr,6,5,맑,NA,NA,NULL,NA,NA,NA
3,1,3,updating,kr,1,3,른,참,NA,NULL,NA,NA,yes
3,1,3,updating,kr,2,2,국,급,NA,NULL,NA,NA,yes
3,1,3,updating,kr,3,1,도,준,NA,NULL,NA,NA,yes
3,1,3,retrieval,kr,1,5,맑,맑,"랑,만,임,억,쟁,간",맑,TRUE,4468.999999999884,no
3,1,3,retrieval,kr,2,1,도,준,"랑,만,임,억,쟁,간",준,TRUE,11284,yes
3,1,3,retrieval,kr,3,0,예,예,"랑,만,임,억,쟁,간",예,TRUE,3479,no
3,1,3,retrieval,kr,4,4,선,선,"랑,만,임,억,쟁,간",억,FALSE,7790.000000000116,no
3,1,3,retrieval,kr,5,3,른,참,"랑,만,임,억,쟁,간",쟁,FALSE,2309,yes
3,1,3,retrieval,kr,6,2,국,급,"랑,만,임,억,쟁,간",급,TRUE,957,yes
3,1,3,debrief,kr,NA,NA,NA,NA,NA,NULL,NA,NA,NA
3,1,4,memory,kr,1,0,섬,NA,NA,NULL,NA,NA,NA
3,1,4,memory,kr,2,1,피,NA,NA,NULL,NA,NA,NA
3,1,4,memory,kr,3,2,독,NA,NA,NULL,NA,NA,NA
3,1,4,memory,kr,4,3,느,NA,NA,NULL,NA,NA,NA
3,1,4,memory,kr,5,4,반,NA,NA,NULL,NA,NA,NA
3,1,4,memory,kr,6,5,견,NA,NA,NULL,NA,NA,NA
3,1,4,updating,kr,1,4,반,말,NA,NULL,NA,NA,yes
3,1,4,updating,kr,2,0,섬,속,NA,NULL,NA,NA,yes
3,1,4,updating,kr,3,1,피,넘,NA,NULL,NA,NA,yes
3,1,4,retrieval,kr,1,1,피,넘,"곳,거,숙,월,석,어",넘,TRUE,3859,yes
3,1,4,retrieval,kr,2,5,견,견,"곳,거,숙,월,석,어",섬,FALSE,9375,no
3,1,4,retrieval,kr,3,4,반,말,"곳,거,숙,월,석,어",말,TRUE,4851,yes
3,1,4,retrieval,kr,4,2,독,독,"곳,거,숙,월,석,어",독,TRUE,9741,no
3,1,4,retrieval,kr,5,0,섬,속,"곳,거,숙,월,석,어",섬,FALSE,5961,yes
3,1,4,retrieval,kr,6,3,느,느,"곳,거,숙,월,석,어",느,TRUE,2652,no
3,1,4,debrief,kr,NA,NA,NA,NA,NA,NULL,NA,NA,NA
3,1,5,memory,kr,1,0,혈,NA,NA,NULL,NA,NA,NA
3,1,5,memory,kr,2,1,규,NA,NA,NULL,NA,NA,NA
3,1,5,memory,kr,3,2,런,NA,NA,NULL,NA,NA,NA
3,1,5,memory,kr,4,3,죄,NA,NA,NULL,NA,NA,NA
3,1,5,memory,kr,5,4,떠,NA,NA,NULL,NA,NA,NA
3,1,5,memory,kr,6,5,낼,NA,NA,NULL,NA,NA,NA
3,1,5,updating,kr,1,5,낼,족,NA,NULL,NA,NA,yes
3,1,5,updating,kr,2,3,죄,할,NA,NULL,NA,NA,yes
3,1,5,updating,kr,3,4,떠,막,NA,NULL,NA,NA,yes
3,1,5,retrieval,kr,1,2,런,런,"루,비,려,었,가,칭",런,TRUE,7715,no
3,1,5,retrieval,kr,2,0,혈,혈,"루,비,려,었,가,칭",할,FALSE,4782.999999999884,no
3,1,5,retrieval,kr,3,3,죄,할,"루,비,려,었,가,칭",막,FALSE,5432,yes
3,1,5,retrieval,kr,4,1,규,규,"루,비,려,었,가,칭",규,TRUE,1541,no
3,1,5,retrieval,kr,5,4,떠,막,"루,비,려,었,가,칭",혈,FALSE,2799.9999999998836,yes
3,1,5,retrieval,kr,6,5,낼,족,"루,비,려,었,가,칭",막,FALSE,13473,yes
3,1,5,debrief,kr,NA,NA,NA,NA,NA,NULL,NA,NA,NA
3,1,6,memory,kr,1,0,륙,NA,NA,NULL,NA,NA,NA
3,1,6,memory,kr,2,1,호,NA,NA,NULL,NA,NA,NA
3,1,6,memory,kr,3,2,극,NA,NA,NULL,NA,NA,NA
3,1,6,memory,kr,4,3,운,NA,NA,NULL,NA,NA,NA
3,1,6,memory,kr,5,4,라,NA,NA,NULL,NA,NA,NA
3,1,6,memory,kr,6,5,역,NA,NA,NULL,NA,NA,NA
3,1,6,updating,kr,1,0,륙,에,NA,NULL,NA,NA,yes
3,1,6,updating,kr,2,5,역,님,NA,NULL,NA,NA,yes
3,1,6,updating,kr,3,3,운,꾸,NA,NULL,NA,NA,yes
3,1,6,retrieval,kr,1,3,운,꾸,"으,빛,획,자,스,개",꾸,TRUE,2613,yes
3,1,6,retrieval,kr,2,5,역,님,"으,빛,획,자,스,개",에,FALSE,8578.999999999884,yes
3,1,6,retrieval,kr,3,2,극,극,"으,빛,획,자,스,개",자,FALSE,14242,no
3,1,6,retrieval,kr,4,0,륙,에,"으,빛,획,자,스,개",님,FALSE,2534,yes
3,1,6,retrieval,kr,5,4,라,라,"으,빛,획,자,스,개",극,FALSE,8793.999999999884,no
3,1,6,retrieval,kr,6,1,호,호,"으,빛,획,자,스,개",륙,FALSE,1369,no
3,1,6,debrief,kr,NA,NA,NA,NA,NA,NULL,NA,NA,NA
3,1,7,memory,kr,1,0,히,NA,NA,NULL,NA,NA,NA
3,1,7,memory,kr,2,1,통,NA,NA,NULL,NA,NA,NA
3,1,7,memory,kr,3,2,최,NA,NA,NULL,NA,NA,NA
3,1,7,memory,kr,4,3,빅,NA,NA,NULL,NA,NA,NA
3,1,7,memory,kr,5,4,합,NA,NA,NULL,NA,NA,NA
3,1,7,memory,kr,6,5,점,NA,NA,NULL,NA,NA,NA
3,1,7,updating,kr,1,3,빅,든,NA,NULL,NA,NA,yes
3,1,7,updating,kr,2,0,히,재,NA,NULL,NA,NA,yes
3,1,7,updating,kr,3,1,통,능,NA,NULL,NA,NA,yes
3,1,7,retrieval,kr,1,4,합,합,"담,체,례,축,마,제",재,FALSE,15473,no
3,1,7,retrieval,kr,2,2,최,최,"담,체,례,축,마,제",최,TRUE,3692,no
3,1,7,retrieval,kr,3,5,점,점,"담,체,례,축,마,제",점,TRUE,9407.999999999884,no
3,1,7,retrieval,kr,4,1,통,능,"담,체,례,축,마,제",능,TRUE,4818.999999999884,yes
3,1,7,retrieval,kr,5,3,빅,든,"담,체,례,축,마,제",빅,FALSE,8182,yes
3,1,7,retrieval,kr,6,0,히,재,"담,체,례,축,마,제",히,FALSE,4131,yes
3,1,7,debrief,kr,NA,NA,NA,NA,NA,NULL,NA,NA,NA
3,1,8,memory,kr,1,0,밝,NA,NA,NULL,NA,NA,NA
3,1,8,memory,kr,2,1,표,NA,NA,NULL,NA,NA,NA
3,1,8,memory,kr,3,2,고,NA,NA,NULL,NA,NA,NA
3,1,8,memory,kr,4,3,세,NA,NA,NULL,NA,NA,NA
3,1,8,memory,kr,5,4,유,NA,NA,NULL,NA,NA,NA
3,1,8,memory,kr,6,5,뜨,NA,NA,NULL,NA,NA,NA
3,1,8,updating,kr,1,1,표,렵,NA,NULL,NA,NA,yes
3,1,8,updating,kr,2,2,고,종,NA,NULL,NA,NA,yes
3,1,8,updating,kr,3,0,밝,후,NA,NULL,NA,NA,yes
3,1,8,retrieval,kr,1,4,유,유,"아,엄,콤,력,분,쓰",유,TRUE,2774,no
3,1,8,retrieval,kr,2,1,표,렵,"아,엄,콤,력,분,쓰",종,FALSE,3394,yes
3,1,8,retrieval,kr,3,2,고,종,"아,엄,콤,력,분,쓰",세,FALSE,10378.000000000116,yes
3,1,8,retrieval,kr,4,0,밝,후,"아,엄,콤,력,분,쓰",후,TRUE,862,yes
3,1,8,retrieval,kr,5,5,뜨,뜨,"아,엄,콤,력,분,쓰",분,FALSE,10808,no
3,1,8,retrieval,kr,6,3,세,세,"아,엄,콤,력,분,쓰",뜨,FALSE,800.0000000002328,no
3,1,8,debrief,kr,NA,NA,NA,NA,NA,NULL,NA,NA,NA
3,1,9,memory,kr,1,0,두,NA,NA,NULL,NA,NA,NA
3,1,9,memory,kr,2,1,판,NA,NA,NULL,NA,NA,NA
3,1,9,memory,kr,3,2,주,NA,NA,NULL,NA,NA,NA
3,1,9,memory,kr,4,3,온,NA,NA,NULL,NA,NA,NA
3,1,9,memory,kr,5,4,묻,NA,NA,NULL,NA,NA,NA
3,1,9,memory,kr,6,5,달,NA,NA,NULL,NA,NA,NA
3,1,9,updating,kr,1,1,판,높,NA,NULL,NA,NA,yes
3,1,9,updating,kr,2,0,두,살,NA,NULL,NA,NA,yes
3,1,9,updating,kr,3,5,달,혐,NA,NULL,NA,NA,yes
3,1,9,retrieval,kr,1,2,주,주,"뜻,렇,름,실,민,순",온,FALSE,5367,no
3,1,9,retrieval,kr,2,1,판,높,"뜻,렇,름,실,민,순",민,FALSE,14977,yes
3,1,9,retrieval,kr,3,4,묻,묻,"뜻,렇,름,실,민,순",NULL,FALSE,NA,no
3,1,9,retrieval,kr,4,3,온,온,"뜻,렇,름,실,민,순",름,FALSE,2807,no
3,1,9,retrieval,kr,5,0,두,살,"뜻,렇,름,실,민,순",혐,FALSE,8102.999999999767,yes
3,1,9,retrieval,kr,6,5,달,혐,"뜻,렇,름,실,민,순",높,FALSE,2531,yes
3,1,9,debrief,kr,NA,NA,NA,NA,NA,NULL,NA,NA,NA
3,1,10,memory,kr,1,0,시,NA,NA,NULL,NA,NA,NA
3,1,10,memory,kr,2,1,풍,NA,NA,NULL,NA,NA,NA
3,1,10,memory,kr,3,2,건,NA,NA,NULL,NA,NA,NA
3,1,10,memory,kr,4,3,와,NA,NA,NULL,NA,NA,NA
3,1,10,memory,kr,5,4,러,NA,NA,NULL,NA,NA,NA
3,1,10,memory,kr,6,5,효,NA,NA,NULL,NA,NA,NA
3,1,10,updating,kr,1,3,와,못,NA,NULL,NA,NA,yes
3,1,10,updating,kr,2,4,러,격,NA,NULL,NA,NA,yes
3,1,10,updating,kr,3,5,효,외,NA,NULL,NA,NA,yes
3,1,10,retrieval,kr,1,5,효,외,"삼,미,승,더,범,금",와,FALSE,3216,yes
3,1,10,retrieval,kr,2,3,와,못,"삼,미,승,더,범,금",승,FALSE,4999,yes
3,1,10,retrieval,kr,3,0,시,시,"삼,미,승,더,범,금",시,TRUE,3632,no
3,1,10,retrieval,kr,4,1,풍,풍,"삼,미,승,더,범,금",풍,TRUE,3076,no
3,1,10,retrieval,kr,5,2,건,건,"삼,미,승,더,범,금",격,FALSE,3085,no
3,1,10,retrieval,kr,6,4,러,격,"삼,미,승,더,범,금",건,FALSE,11140,yes
3,1,10,debrief,kr,NA,NA,NA,NA,NA,NULL,NA,NA,NA
3,1,11,memory,kr,1,0,년,NA,NA,NULL,NA,NA,NA
3,1,11,memory,kr,2,1,완,NA,NA,NULL,NA,NA,NA
3,1,11,memory,kr,3,2,오,NA,NA,NULL,NA,NA,NA
3,1,11,memory,kr,4,3,양,NA,NA,NULL,NA,NA,NA
3,1,11,memory,kr,5,4,병,NA,NA,NULL,NA,NA,NA
3,1,11,memory,kr,6,5,뒤,NA,NA,NULL,NA,NA,NA
3,1,11,updating,kr,1,3,양,란,NA,NULL,NA,NA,yes
3,1,11,updating,kr,2,2,오,옮,NA,NULL,NA,NA,yes
3,1,11,updating,kr,3,0,년,힘,NA,NULL,NA,NA,yes
3,1,11,retrieval,kr,1,3,양,란,"띤,베,는,현,겠,그",란,TRUE,12983,yes
3,1,11,retrieval,kr,2,5,뒤,뒤,"띤,베,는,현,겠,그",힘,FALSE,6785,no
3,1,11,retrieval,kr,3,1,완,완,"띤,베,는,현,겠,그",병,FALSE,9791,no
3,1,11,retrieval,kr,4,0,년,힘,"띤,베,는,현,겠,그",란,FALSE,6435,yes
3,1,11,retrieval,kr,5,2,오,옮,"띤,베,는,현,겠,그",옮,TRUE,1299,yes
3,1,11,retrieval,kr,6,4,병,병,"띤,베,는,현,겠,그",겠,FALSE,7577.999999999767,no
3,1,11,debrief,kr,NA,NA,NA,NA,NA,NULL,NA,NA,NA
3,1,12,memory,kr,1,0,패,NA,NA,NULL,NA,NA,NA
3,1,12,memory,kr,2,1,택,NA,NA,NULL,NA,NA,NA
3,1,12,memory,kr,3,2,암,NA,NA,NULL,NA,NA,NA
3,1,12,memory,kr,4,3,증,NA,NA,NULL,NA,NA,NA
3,1,12,memory,kr,5,4,바,NA,NA,NULL,NA,NA,NA
3,1,12,memory,kr,6,5,학,NA,NA,NULL,NA,NA,NA
3,1,12,updating,kr,1,3,증,율,NA,NULL,NA,NA,yes
3,1,12,updating,kr,2,0,패,났,NA,NULL,NA,NA,yes
3,1,12,updating,kr,3,1,택,리,NA,NULL,NA,NA,yes
3,1,12,retrieval,kr,1,2,암,암,"평,받,절,뿜,컨,토",암,TRUE,15699,no
3,1,12,retrieval,kr,2,0,패,났,"평,받,절,뿜,컨,토",났,TRUE,4800,yes
3,1,12,retrieval,kr,3,3,증,율,"평,받,절,뿜,컨,토",증,FALSE,8278,yes
3,1,12,retrieval,kr,4,1,택,리,"평,받,절,뿜,컨,토",리,TRUE,1538,yes
3,1,12,retrieval,kr,5,5,학,학,"평,받,절,뿜,컨,토",학,TRUE,5534,no
3,1,12,retrieval,kr,6,4,바,바,"평,받,절,뿜,컨,토",증,FALSE,1758,no
3,1,12,debrief,kr,NA,NA,NA,NA,NA,NULL,NA,NA,NA
3,1,13,memory,kr,1,0,로,NA,NA,NULL,NA,NA,NA
3,1,13,memory,kr,2,1,럽,NA,NA,NULL,NA,NA,NA
3,1,13,memory,kr,3,2,않,NA,NA,NULL,NA,NA,NA
3,1,13,memory,kr,4,3,위,NA,NA,NULL,NA,NA,NA
3,1,13,memory,kr,5,4,또,NA,NA,NULL,NA,NA,NA
3,1,13,memory,kr,6,5,측,NA,NA,NULL,NA,NA,NA
3,1,13,updating,kr,1,4,또,관,NA,NULL,NA,NA,yes
3,1,13,updating,kr,2,2,않,육,NA,NULL,NA,NA,yes
3,1,13,updating,kr,3,5,측,칙,NA,NULL,NA,NA,yes
3,1,13,retrieval,kr,1,3,위,위,"성,근,과,찬,생,잇",성,FALSE,5634,no
3,1,13,retrieval,kr,2,4,또,관,"성,근,과,찬,생,잇",또,FALSE,7721,yes
3,1,13,retrieval,kr,3,2,않,육,"성,근,과,찬,생,잇",잇,FALSE,6532,yes
3,1,13,retrieval,kr,4,0,로,로,"성,근,과,찬,생,잇",육,FALSE,4984,no
3,1,13,retrieval,kr,5,5,측,칙,"성,근,과,찬,생,잇",측,FALSE,2299,yes
3,1,13,retrieval,kr,6,1,럽,럽,"성,근,과,찬,생,잇",않,FALSE,3207,no
3,1,13,debrief,kr,NA,NA,NA,NA,NA,NULL,NA,NA,NA
3,1,14,memory,kr,1,0,튜,NA,NA,NULL,NA,NA,NA
3,1,14,memory,kr,2,1,음,NA,NA,NULL,NA,NA,NA
3,1,14,memory,kr,3,2,치,NA,NA,NULL,NA,NA,NA
3,1,14,memory,kr,4,3,께,NA,NA,NULL,NA,NA,NA
3,1,14,memory,kr,5,4,영,NA,NA,NULL,NA,NA,NA
3,1,14,memory,kr,6,5,한,NA,NA,NULL,NA,NA,NA
3,1,14,updating,kr,1,4,영,첫,NA,NULL,NA,NA,yes
3,1,14,updating,kr,2,5,한,서,NA,NULL,NA,NA,yes
3,1,14,updating,kr,3,1,음,차,NA,NULL,NA,NA,yes
3,1,14,retrieval,kr,1,2,치,치,"면,산,던,별,인,며",인,FALSE,16274,no
3,1,14,retrieval,kr,2,4,영,첫,"면,산,던,별,인,며",영,FALSE,9581,yes
3,1,14,retrieval,kr,3,1,음,차,"면,산,던,별,인,며",치,FALSE,11715,yes
3,1,14,retrieval,kr,4,3,께,께,"면,산,던,별,인,며",께,TRUE,1717,no
3,1,14,retrieval,kr,5,0,튜,튜,"면,산,던,별,인,며",튜,TRUE,7471.999999999767,no
3,1,14,retrieval,kr,6,5,한,서,"면,산,던,별,인,며",한,FALSE,1249,yes
3,1,14,debrief,kr,NA,NA,NA,NA,NA,NULL,NA,NA,NA
3,1,15,memory,kr,1,0,책,NA,NA,NULL,NA,NA,NA
3,1,15,memory,kr,2,1,각,NA,NA,NULL,NA,NA,NA
3,1,15,memory,kr,3,2,것,NA,NA,NULL,NA,NA,NA
3,1,15,memory,kr,4,3,추,NA,NA,NULL,NA,NA,NA
3,1,15,memory,kr,5,4,했,NA,NA,NULL,NA,NA,NA
3,1,15,memory,kr,6,5,혔,NA,NA,NULL,NA,NA,NA
3,1,15,updating,kr,1,2,것,렌,NA,NULL,NA,NA,yes
3,1,15,updating,kr,2,1,각,동,NA,NULL,NA,NA,yes
3,1,15,updating,kr,3,4,했,떡,NA,NULL,NA,NA,yes
3,1,15,retrieval,kr,1,5,혔,혔,"래,습,행,립,내,울",했,FALSE,11734,no
3,1,15,retrieval,kr,2,2,것,렌,"래,습,행,립,내,울",떡,FALSE,11950.000000000233,yes
3,1,15,retrieval,kr,3,1,각,동,"래,습,행,립,내,울",렌,FALSE,14799,yes
3,1,15,retrieval,kr,4,3,추,추,"래,습,행,립,내,울",추,TRUE,1846,no
3,1,15,retrieval,kr,5,4,했,떡,"래,습,행,립,내,울",내,FALSE,6923,yes
3,1,15,retrieval,kr,6,0,책,책,"래,습,행,립,내,울",렌,FALSE,2678,no
3,1,15,debrief,kr,NA,NA,NA,NA,NA,NULL,NA,NA,NA
3,1,16,memory,kr,1,0,뿌,NA,NA,NULL,NA,NA,NA
3,1,16,memory,kr,2,1,저,NA,NA,NULL,NA,NA,NA
3,1,16,memory,kr,3,2,신,NA,NA,NULL,NA,NA,NA
3,1,16,memory,kr,4,3,특,NA,NA,NULL,NA,NA,NA
3,1,16,memory,kr,5,4,회,NA,NA,NULL,NA,NA,NA
3,1,16,memory,kr,6,5,단,NA,NA,NULL,NA,NA,NA
3,1,16,updating,kr,1,3,특,연,NA,NULL,NA,NA,yes
3,1,16,updating,kr,2,1,저,원,NA,NULL,NA,NA,yes
3,1,16,updating,kr,3,4,회,익,NA,NULL,NA,NA,yes
3,1,16,retrieval,kr,1,2,신,신,"술,찰,듣,져,명,화",저,FALSE,2327,no
3,1,16,retrieval,kr,2,0,뿌,뿌,"술,찰,듣,져,명,화",연,FALSE,13557,no
3,1,16,retrieval,kr,3,4,회,익,"술,찰,듣,져,명,화",익,TRUE,3598,yes
3,1,16,retrieval,kr,4,1,저,원,"술,찰,듣,져,명,화",원,TRUE,1560,yes
3,1,16,retrieval,kr,5,5,단,단,"술,찰,듣,져,명,화",단,TRUE,5746,no
3,1,16,retrieval,kr,6,3,특,연,"술,찰,듣,져,명,화",신,FALSE,4926,yes
3,1,16,debrief,kr,NA,NA,NA,NA,NA,NULL,NA,NA,NA
3,1,17,memory,kr,1,0,늘,NA,NA,NULL,NA,NA,NA
3,1,17,memory,kr,2,1,냉,NA,NA,NULL,NA,NA,NA
3,1,17,memory,kr,3,2,환,NA,NA,NULL,NA,NA,NA
3,1,17,memory,kr,4,3,상,NA,NA,NULL,NA,NA,NA
3,1,17,memory,kr,5,4,포,NA,NA,NULL,NA,NA,NA
3,1,17,memory,kr,6,5,은,NA,NA,NULL,NA,NA,NA
3,1,17,updating,kr,1,3,상,았,NA,NULL,NA,NA,yes
3,1,17,updating,kr,2,5,은,부,NA,NULL,NA,NA,yes
3,1,17,updating,kr,3,0,늘,형,NA,NULL,NA,NA,yes
3,1,17,retrieval,kr,1,1,냉,냉,"씨,이,줄,등,덜,열",상,FALSE,6126,no
3,1,17,retrieval,kr,2,2,환,환,"씨,이,줄,등,덜,열",환,TRUE,2273,no
3,1,17,retrieval,kr,3,4,포,포,"씨,이,줄,등,덜,열",줄,FALSE,9965,no
3,1,17,retrieval,kr,4,0,늘,형,"씨,이,줄,등,덜,열",냉,FALSE,7494,yes
3,1,17,retrieval,kr,5,5,은,부,"씨,이,줄,등,덜,열",부,TRUE,8528,yes
3,1,17,retrieval,kr,6,3,상,았,"씨,이,줄,등,덜,열",았,TRUE,5401,yes
3,1,17,debrief,kr,NA,NA,NA,NA,NA,NULL,NA,NA,NA
3,1,18,memory,kr,1,0,조,NA,NA,NULL,NA,NA,NA
3,1,18,memory,kr,2,1,나,NA,NA,NULL,NA,NA,NA
3,1,18,memory,kr,3,2,섰,NA,NA,NULL,NA,NA,NA
3,1,18,memory,kr,4,3,파,NA,NA,NULL,NA,NA,NA
3,1,18,memory,kr,5,4,였,NA,NA,NULL,NA,NA,NA
3,1,18,memory,kr,6,5,정,NA,NA,NULL,NA,NA,NA
3,1,18,updating,kr,1,4,였,난,NA,NULL,NA,NA,yes
3,1,18,updating,kr,2,2,섰,방,NA,NULL,NA,NA,yes
3,1,18,updating,kr,3,5,정,데,NA,NULL,NA,NA,yes
3,1,18,retrieval,kr,1,1,나,나,"있,용,드,떨,향,률",파,FALSE,7399.999999999767,no
3,1,18,retrieval,kr,2,2,섰,방,"있,용,드,떨,향,률",방,TRUE,2707,yes
3,1,18,retrieval,kr,3,5,정,데,"있,용,드,떨,향,률",데,TRUE,1636,yes
3,1,18,retrieval,kr,4,4,였,난,"있,용,드,떨,향,률",난,TRUE,6244,yes
3,1,18,retrieval,kr,5,0,조,조,"있,용,드,떨,향,률",조,TRUE,4700,no
3,1,18,retrieval,kr,6,3,파,파,"있,용,드,떨,향,률",난,FALSE,9093,no
3,1,18,debrief,kr,NA,NA,NA,NA,NA,NULL,NA,NA,NA
3,1,19,memory,kr,1,0,응,NA,NA,NULL,NA,NA,NA
3,1,19,memory,kr,2,1,벌,NA,NA,NULL,NA,NA,NA
3,1,19,memory,kr,3,2,쓸,NA,NA,NULL,NA,NA,NA
3,1,19,memory,kr,4,3,감,NA,NA,NULL,NA,NA,NA
3,1,19,memory,kr,5,4,해,NA,NA,NULL,NA,NA,NA
3,1,19,memory,kr,6,5,맞,NA,NA,NULL,NA,NA,NA
3,1,19,updating,kr,1,4,해,진,NA,NULL,NA,NA,yes
3,1,19,updating,kr,2,3,감,버,NA,NULL,NA,NA,yes
3,1,19,updating,kr,3,5,맞,됐,NA,NULL,NA,NA,yes
3,1,19,retrieval,kr,1,0,응,응,"론,폐,들,를,야,당",응,TRUE,3116,no
3,1,19,retrieval,kr,2,2,쓸,쓸,"론,폐,들,를,야,당",쓸,TRUE,7294,no
3,1,19,retrieval,kr,3,4,해,진,"론,폐,들,를,야,당",감,FALSE,14974,yes
3,1,19,retrieval,kr,4,1,벌,벌,"론,폐,들,를,야,당",벌,TRUE,3938,no
3,1,19,retrieval,kr,5,5,맞,됐,"론,폐,들,를,야,당",맞,FALSE,1992,yes
3,1,19,retrieval,kr,6,3,감,버,"론,폐,들,를,야,당",론,FALSE,3546,yes
3,1,19,debrief,kr,NA,NA,NA,NA,NA,NULL,NA,NA,NA
3,1,20,memory,kr,1,0,낙,NA,NA,NULL,NA,NA,NA
3,1,20,memory,kr,2,1,큼,NA,NA,NULL,NA,NA,NA
3,1,20,memory,kr,3,2,혀,NA,NA,NULL,NA,NA,NA
3,1,20,memory,kr,4,3,휴,NA,NA,NULL,NA,NA,NA
3,1,20,memory,kr,5,4,날,NA,NA,NULL,NA,NA,NA
3,1,20,memory,kr,6,5,따,NA,NA,NULL,NA,NA,NA
3,1,20,updating,kr,1,3,휴,일,NA,NULL,NA,NA,yes
3,1,20,updating,kr,2,0,낙,천,NA,NULL,NA,NA,yes
3,1,20,updating,kr,3,1,큼,을,NA,NULL,NA,NA,yes
3,1,20,retrieval,kr,1,3,휴,일,"너,수,된,검,픔,법",너,FALSE,14297,yes
3,1,20,retrieval,kr,2,5,따,따,"너,수,된,검,픔,법",천,FALSE,5372,no
3,1,20,retrieval,kr,3,1,큼,을,"너,수,된,검,픔,법",큼,FALSE,5869,yes
3,1,20,retrieval,kr,4,0,낙,천,"너,수,된,검,픔,법",따,FALSE,9396.000000000233,yes
3,1,20,retrieval,kr,5,4,날,날,"너,수,된,검,픔,법",천,FALSE,5191,no
3,1,20,retrieval,kr,6,2,혀,혀,"너,수,된,검,픔,법",혀,TRUE,1405,no
3,1,20,debrief,kr,NA,NA,NA,NA,NA,NULL,NA,NA,NA
3,2,1,memory,cn,1,0,阵,NA,NA,NULL,NA,NA,NA
3,2,1,memory,cn,2,1,戏,NA,NA,NULL,NA,NA,NA
3,2,1,memory,cn,3,2,忙,NA,NA,NULL,NA,NA,NA
3,2,1,memory,cn,4,3,压,NA,NA,NULL,NA,NA,NA
3,2,1,memory,cn,5,4,级,NA,NA,NULL,NA,NA,NA
3,2,1,memory,cn,6,5,市,NA,NA,NULL,NA,NA,NA
3,2,1,updating,cn,1,3,压,尔,NA,NULL,NA,NA,yes
3,2,1,updating,cn,2,5,市,今,NA,NULL,NA,NA,yes
3,2,1,updating,cn,3,4,级,华,NA,NULL,NA,NA,yes
3,2,1,retrieval,cn,1,4,级,华,"亦,场,丛,从,妇,仁",华,TRUE,3682,yes
3,2,1,retrieval,cn,2,2,忙,忙,"亦,场,丛,从,妇,仁",忙,TRUE,2291.000000000233,no
3,2,1,retrieval,cn,3,5,市,今,"亦,场,丛,从,妇,仁",今,TRUE,3714,yes
3,2,1,retrieval,cn,4,3,压,尔,"亦,场,丛,从,妇,仁",尔,TRUE,3311,yes
3,2,1,retrieval,cn,5,1,戏,戏,"亦,场,丛,从,妇,仁",市,FALSE,2929.000000000233,no
3,2,1,retrieval,cn,6,0,阵,阵,"亦,场,丛,从,妇,仁",阵,TRUE,856,no
3,2,1,debrief,cn,NA,NA,NA,NA,NA,NULL,NA,NA,NA
3,2,2,memory,cn,1,0,句,NA,NA,NULL,NA,NA,NA
3,2,2,memory,cn,2,1,叹,NA,NA,NULL,NA,NA,NA
3,2,2,memory,cn,3,2,邦,NA,NA,NULL,NA,NA,NA
3,2,2,memory,cn,4,3,扎,NA,NA,NULL,NA,NA,NA
3,2,2,memory,cn,5,4,本,NA,NA,NULL,NA,NA,NA
3,2,2,memory,cn,6,5,衣,NA,NA,NULL,NA,NA,NA
3,2,2,updating,cn,1,2,邦,厌,NA,NULL,NA,NA,yes
3,2,2,updating,cn,2,4,本,订,NA,NULL,NA,NA,yes
3,2,2,updating,cn,3,5,衣,巩,NA,NULL,NA,NA,yes
3,2,2,retrieval,cn,1,1,叹,叹,"幻,忆,戈,未,安,支",叹,TRUE,3671,no
3,2,2,retrieval,cn,2,3,扎,扎,"幻,忆,戈,未,安,支",扎,TRUE,2010.9999999997672,no
3,2,2,retrieval,cn,3,2,邦,厌,"幻,忆,戈,未,安,支",厌,TRUE,3430,yes
3,2,2,retrieval,cn,4,4,本,订,"幻,忆,戈,未,安,支",订,TRUE,3268,yes
3,2,2,retrieval,cn,5,5,衣,巩,"幻,忆,戈,未,安,支",巩,TRUE,1741.9999999997672,yes
3,2,2,retrieval,cn,6,0,句,句,"幻,忆,戈,未,安,支",句,TRUE,3185.000000000233,no
3,2,2,debrief,cn,NA,NA,NA,NA,NA,NULL,NA,NA,NA
3,2,3,memory,cn,1,0,召,NA,NA,NULL,NA,NA,NA
3,2,3,memory,cn,2,1,贞,NA,NA,NULL,NA,NA,NA
3,2,3,memory,cn,3,2,母,NA,NA,NULL,NA,NA,NA
3,2,3,memory,cn,4,3,收,NA,NA,NULL,NA,NA,NA
3,2,3,memory,cn,5,4,为,NA,NA,NULL,NA,NA,NA
3,2,3,memory,cn,6,5,叶,NA,NA,NULL,NA,NA,NA
3,2,3,updating,cn,1,4,为,仲,NA,NULL,NA,NA,yes
3,2,3,updating,cn,2,2,母,五,NA,NULL,NA,NA,yes
3,2,3,updating,cn,3,1,贞,庄,NA,NULL,NA,NA,yes
3,2,3,retrieval,cn,1,3,收,收,"危,头,木,申,田,东",收,TRUE,2163,no
3,2,3,retrieval,cn,2,0,召,召,"危,头,木,申,田,东",召,TRUE,4837,no
3,2,3,retrieval,cn,3,5,叶,叶,"危,头,木,申,田,东",仲,FALSE,6707,no
3,2,3,retrieval,cn,4,1,贞,庄,"危,头,木,申,田,东",五,FALSE,5388,yes
3,2,3,retrieval,cn,5,2,母,五,"危,头,木,申,田,东",庄,FALSE,6329,yes
3,2,3,retrieval,cn,6,4,为,仲,"危,头,木,申,田,东",叶,FALSE,8335,yes
3,2,3,debrief,cn,NA,NA,NA,NA,NA,NULL,NA,NA,NA
3,2,4,memory,cn,1,0,氏,NA,NA,NULL,NA,NA,NA
3,2,4,memory,cn,2,1,合,NA,NA,NULL,NA,NA,NA
3,2,4,memory,cn,3,2,币,NA,NA,NULL,NA,NA,NA
3,2,4,memory,cn,4,3,永,NA,NA,NULL,NA,NA,NA
3,2,4,memory,cn,5,4,巴,NA,NA,NULL,NA,NA,NA
3,2,4,memory,cn,6,5,矛,NA,NA,NULL,NA,NA,NA
3,2,4,updating,cn,1,0,氏,兆,NA,NULL,NA,NA,yes
3,2,4,updating,cn,2,4,巴,驰,NA,NULL,NA,NA,yes
3,2,4,updating,cn,3,1,合,阶,NA,NULL,NA,NA,yes
3,2,4,retrieval,cn,1,4,巴,驰,"因,汤,她,勾,仰,师",驰,TRUE,2808.999999999767,yes
3,2,4,retrieval,cn,2,2,币,币,"因,汤,她,勾,仰,师",币,TRUE,3607.999999999767,no
3,2,4,retrieval,cn,3,1,合,阶,"因,汤,她,勾,仰,师",永,FALSE,10535.000000000233,yes
3,2,4,retrieval,cn,4,5,矛,矛,"因,汤,她,勾,仰,师",矛,TRUE,5289.000000000233,no
3,2,4,retrieval,cn,5,0,氏,兆,"因,汤,她,勾,仰,师",兆,TRUE,4684.000000000233,yes
3,2,4,retrieval,cn,6,3,永,永,"因,汤,她,勾,仰,师",永,TRUE,4988.999999999767,no
3,2,4,debrief,cn,NA,NA,NA,NA,NA,NULL,NA,NA,NA
3,2,5,memory,cn,1,0,纤,NA,NA,NULL,NA,NA,NA
3,2,5,memory,cn,2,1,网,NA,NA,NULL,NA,NA,NA
3,2,5,memory,cn,3,2,吓,NA,NA,NULL,NA,NA,NA
3,2,5,memory,cn,4,3,丹,NA,NA,NULL,NA,NA,NA
3,2,5,memory,cn,5,4,分,NA,NA,NULL,NA,NA,NA
3,2,5,memory,cn,6,5,夺,NA,NA,NULL,NA,NA,NA
3,2,5,updating,cn,1,3,丹,休,NA,NULL,NA,NA,yes
3,2,5,updating,cn,2,5,夺,边,NA,NULL,NA,NA,yes
3,2,5,updating,cn,3,0,纤,吁,NA,NULL,NA,NA,yes
3,2,5,retrieval,cn,1,3,丹,休,"民,伊,池,父,毛,丢",休,TRUE,3256,yes
3,2,5,retrieval,cn,2,4,分,分,"民,伊,池,父,毛,丢",分,TRUE,1279,no
3,2,5,retrieval,cn,3,5,夺,边,"民,伊,池,父,毛,丢",边,TRUE,884,yes
3,2,5,retrieval,cn,4,2,吓,吓,"民,伊,池,父,毛,丢",吓,TRUE,9211,no
3,2,5,retrieval,cn,5,1,网,网,"民,伊,池,父,毛,丢",网,TRUE,1967,no
3,2,5,retrieval,cn,6,0,纤,吁,"民,伊,池,父,毛,丢",吁,TRUE,901.0000000004657,yes
3,2,5,debrief,cn,NA,NA,NA,NA,NA,NULL,NA,NA,NA
3,2,6,memory,cn,1,0,扔,NA,NA,NULL,NA,NA,NA
3,2,6,memory,cn,2,1,水,NA,NA,NULL,NA,NA,NA
3,2,6,memory,cn,3,2,而,NA,NA,NULL,NA,NA,NA
3,2,6,memory,cn,4,3,早,NA,NA,NULL,NA,NA,NA
3,2,6,memory,cn,5,4,阳,NA,NA,NULL,NA,NA,NA
3,2,6,memory,cn,6,5,冰,NA,NA,NULL,NA,NA,NA
3,2,6,updating,cn,1,0,扔,扣,NA,NULL,NA,NA,yes
3,2,6,updating,cn,2,1,水,动,NA,NULL,NA,NA,yes
3,2,6,updating,cn,3,5,冰,书,NA,NULL,NA,NA,yes
3,2,6,retrieval,cn,1,3,早,早,"什,机,日,记,友,迅",早,TRUE,2783.9999999995343,no
3,2,6,retrieval,cn,2,0,扔,扣,"什,机,日,记,友,迅",扣,TRUE,1776,yes
3,2,6,retrieval,cn,3,2,而,而,"什,机,日,记,友,迅",而,TRUE,1383,no
3,2,6,retrieval,cn,4,5,冰,书,"什,机,日,记,友,迅",书,TRUE,1772.0000000004657,yes
3,2,6,retrieval,cn,5,1,水,动,"什,机,日,记,友,迅",动,TRUE,3040,yes
3,2,6,retrieval,cn,6,4,阳,阳,"什,机,日,记,友,迅",阳,TRUE,3130,no
3,2,6,debrief,cn,NA,NA,NA,NA,NA,NULL,NA,NA,NA
3,2,7,memory,cn,1,0,鸟,NA,NA,NULL,NA,NA,NA
3,2,7,memory,cn,2,1,少,NA,NA,NULL,NA,NA,NA
3,2,7,memory,cn,3,2,必,NA,NA,NULL,NA,NA,NA
3,2,7,memory,cn,4,3,丰,NA,NA,NULL,NA,NA,NA
3,2,7,memory,cn,5,4,共,NA,NA,NULL,NA,NA,NA
3,2,7,memory,cn,6,5,帅,NA,NA,NULL,NA,NA,NA
3,2,7,updating,cn,1,5,帅,议,NA,NULL,NA,NA,yes
3,2,7,updating,cn,2,1,少,开,NA,NULL,NA,NA,yes
3,2,7,updating,cn,3,0,鸟,正,NA,NULL,NA,NA,yes
3,2,7,retrieval,cn,1,1,少,开,"吏,全,且,太,壮,会",正,FALSE,1165,yes
3,2,7,retrieval,cn,2,5,帅,议,"吏,全,且,太,壮,会",议,TRUE,6213,yes
3,2,7,retrieval,cn,3,0,鸟,正,"吏,全,且,太,壮,会",正,TRUE,1326,yes
3,2,7,retrieval,cn,4,2,必,必,"吏,全,且,太,壮,会",必,TRUE,3149,no
3,2,7,retrieval,cn,5,3,丰,丰,"吏,全,且,太,壮,会",丰,TRUE,4301.999999999534,no
3,2,7,retrieval,cn,6,4,共,共,"吏,全,且,太,壮,会",共,TRUE,2884.9999999995343,no
3,2,7,debrief,cn,NA,NA,NA,NA,NA,NULL,NA,NA,NA
3,2,8,memory,cn,1,0,乎,NA,NA,NULL,NA,NA,NA
3,2,8,memory,cn,2,1,丝,NA,NA,NULL,NA,NA,NA
3,2,8,memory,cn,3,2,闯,NA,NA,NULL,NA,NA,NA
3,2,8,memory,cn,4,3,企,NA,NA,NULL,NA,NA,NA
3,2,8,memory,cn,5,4,权,NA,NA,NULL,NA,NA,NA
3,2,8,memory,cn,6,5,地,NA,NA,NULL,NA,NA,NA
3,2,8,updating,cn,1,0,乎,臣,NA,NULL,NA,NA,yes
3,2,8,updating,cn,2,4,权,册,NA,NULL,NA,NA,yes
3,2,8,updating,cn,3,2,闯,仗,NA,NULL,NA,NA,yes
3,2,8,retrieval,cn,1,4,权,册,"云,朵,老,自,半,成",权,FALSE,10149.999999999534,yes
3,2,8,retrieval,cn,2,3,企,企,"云,朵,老,自,半,成",闯,FALSE,3159.9999999995343,no
3,2,8,retrieval,cn,3,1,丝,丝,"云,朵,老,自,半,成",丝,TRUE,2503,no
3,2,8,retrieval,cn,4,5,地,地,"云,朵,老,自,半,成",地,TRUE,3106,no
3,2,8,retrieval,cn,5,0,乎,臣,"云,朵,老,自,半,成",臣,TRUE,1702,yes
3,2,8,retrieval,cn,6,2,闯,仗,"云,朵,老,自,半,成",仗,TRUE,5022,yes
3,2,8,debrief,cn,NA,NA,NA,NA,NA,NULL,NA,NA,NA
3,2,9,memory,cn,1,0,凶,NA,NA,NULL,NA,NA,NA
3,2,9,memory,cn,2,1,匆,NA,NA,NULL,NA,NA,NA
3,2,9,memory,cn,3,2,允,NA,NA,NULL,NA,NA,NA
3,2,9,memory,cn,4,3,斤,NA,NA,NULL,NA,NA,NA
3,2,9,memory,cn,5,4,业,NA,NA,NULL,NA,NA,NA
3,2,9,memory,cn,6,5,生,NA,NA,NULL,NA,NA,NA
3,2,9,updating,cn,1,1,匆,多,NA,NULL,NA,NA,yes
3,2,9,updating,cn,2,5,生,爪,NA,NULL,NA,NA,yes
3,2,9,updating,cn,3,0,凶,份,NA,NULL,NA,NA,yes
3,2,9,retrieval,cn,1,1,匆,多,"负,瓜,弗,斥,巧,四",允,FALSE,10119,yes
3,2,9,retrieval,cn,2,4,业,业,"负,瓜,弗,斥,巧,四",四,FALSE,3577.0000000004657,no
3,2,9,retrieval,cn,3,0,凶,份,"负,瓜,弗,斥,巧,四",爪,FALSE,13361,yes
3,2,9,retrieval,cn,4,3,斤,斤,"负,瓜,弗,斥,巧,四",份,FALSE,9511,no
3,2,9,retrieval,cn,5,2,允,允,"负,瓜,弗,斥,巧,四",允,TRUE,3752,no
3,2,9,retrieval,cn,6,5,生,爪,"负,瓜,弗,斥,巧,四",爪,TRUE,2201,yes
3,2,9,debrief,cn,NA,NA,NA,NA,NA,NULL,NA,NA,NA
3,2,10,memory,cn,1,0,问,NA,NA,NULL,NA,NA,NA
3,2,10,memory,cn,2,1,切,NA,NA,NULL,NA,NA,NA
3,2,10,memory,cn,3,2,史,NA,NA,NULL,NA,NA,NA
3,2,10,memory,cn,4,3,互,NA,NA,NULL,NA,NA,NA
3,2,10,memory,cn,5,4,尽,NA,NA,NULL,NA,NA,NA
3,2,10,memory,cn,6,5,匹,NA,NA,NULL,NA,NA,NA
3,2,10,updating,cn,1,1,切,扫,NA,NULL,NA,NA,yes
3,2,10,updating,cn,2,0,问,火,NA,NULL,NA,NA,yes
3,2,10,updating,cn,3,5,匹,向,NA,NULL,NA,NA,yes
3,2,10,retrieval,cn,1,0,问,火,"台,令,办,电,号,名",火,TRUE,2029,yes
3,2,10,retrieval,cn,2,1,切,扫,"台,令,办,电,号,名",扫,TRUE,913,yes
3,2,10,retrieval,cn,3,4,尽,尽,"台,令,办,电,号,名",切,FALSE,7145,no
3,2,10,retrieval,cn,4,3,互,互,"台,令,办,电,号,名",办,FALSE,14218.000000000466,no
3,2,10,retrieval,cn,5,2,史,史,"台,令,办,电,号,名",史,TRUE,955.0000000004657,no
3,2,10,retrieval,cn,6,5,匹,向,"台,令,办,电,号,名",向,TRUE,2488,yes
3,2,10,debrief,cn,NA,NA,NA,NA,NA,NULL,NA,NA,NA
3,2,11,memory,cn,1,0,军,NA,NA,NULL,NA,NA,NA
3,2,11,memory,cn,2,1,奸,NA,NA,NULL,NA,NA,NA
3,2,11,memory,cn,3,2,犯,NA,NA,NULL,NA,NA,NA
3,2,11,memory,cn,4,3,牙,NA,NA,NULL,NA,NA,NA
3,2,11,memory,cn,5,4,化,NA,NA,NULL,NA,NA,NA
3,2,11,memory,cn,6,5,岂,NA,NA,NULL,NA,NA,NA
3,2,11,updating,cn,1,5,岂,曲,NA,NULL,NA,NA,yes
3,2,11,updating,cn,2,1,奸,肉,NA,NULL,NA,NA,yes
3,2,11,updating,cn,3,4,化,叭,NA,NULL,NA,NA,yes
3,2,11,retrieval,cn,1,2,犯,犯,"再,扩,乏,寻,双,齐",犯,TRUE,3070,no
3,2,11,retrieval,cn,2,0,军,军,"再,扩,乏,寻,双,齐",军,TRUE,1386,no
3,2,11,retrieval,cn,3,3,牙,牙,"再,扩,乏,寻,双,齐",牙,TRUE,1370,no
3,2,11,retrieval,cn,4,5,岂,曲,"再,扩,乏,寻,双,齐",曲,TRUE,1760.9999999995343,yes
3,2,11,retrieval,cn,5,1,奸,肉,"再,扩,乏,寻,双,齐",肉,TRUE,2144,yes
3,2,11,retrieval,cn,6,4,化,叭,"再,扩,乏,寻,双,齐",化,FALSE,11275,yes
3,2,11,debrief,cn,NA,NA,NA,NA,NA,NULL,NA,NA,NA
3,2,12,memory,cn,1,0,伏,NA,NA,NULL,NA,NA,NA
3,2,12,memory,cn,2,1,夫,NA,NA,NULL,NA,NA,NA
3,2,12,memory,cn,3,2,户,NA,NA,NULL,NA,NA,NA
3,2,12,memory,cn,4,3,字,NA,NA,NULL,NA,NA,NA
3,2,12,memory,cn,5,4,似,NA,NA,NULL,NA,NA,NA
3,2,12,memory,cn,6,5,光,NA,NA,NULL,NA,NA,NA
3,2,12,updating,cn,1,2,户,贝,NA,NULL,NA,NA,yes
3,2,12,updating,cn,2,1,夫,失,NA,NULL,NA,NA,yes
3,2,12,updating,cn,3,3,字,纪,NA,NULL,NA,NA,yes
3,2,12,retrieval,cn,1,4,似,似,"引,片,写,凤,冯,元",似,TRUE,2611,no
3,2,12,retrieval,cn,2,3,字,纪,"引,片,写,凤,冯,元",贝,FALSE,3500.9999999995343,yes
3,2,12,retrieval,cn,3,2,户,贝,"引,片,写,凤,冯,元",户,FALSE,3364,yes
3,2,12,retrieval,cn,4,0,伏,伏,"引,片,写,凤,冯,元",伏,TRUE,2942,no
3,2,12,retrieval,cn,5,5,光,光,"引,片,写,凤,冯,元",光,TRUE,2283.0000000004657,no
3,2,12,retrieval,cn,6,1,夫,失,"引,片,写,凤,冯,元",失,TRUE,1423,yes
3,2,12,debrief,cn,NA,NA,NA,NA,NA,NULL,NA,NA,NA
3,2,13,memory,cn,1,0,反,NA,NA,NULL,NA,NA,NA
3,2,13,memory,cn,2,1,牛,NA,NA,NULL,NA,NA,NA
3,2,13,memory,cn,3,2,古,NA,NA,NULL,NA,NA,NA
3,2,13,memory,cn,4,3,灭,NA,NA,NULL,NA,NA,NA
3,2,13,memory,cn,5,4,训,NA,NA,NULL,NA,NA,NA
3,2,13,memory,cn,6,5,汇,NA,NA,NULL,NA,NA,NA
3,2,13,updating,cn,1,2,古,农,NA,NULL,NA,NA,yes
3,2,13,updating,cn,2,3,灭,曰,NA,NULL,NA,NA,yes
3,2,13,updating,cn,3,4,训,文,NA,NULL,NA,NA,yes
3,2,13,retrieval,cn,1,4,训,文,"寺,左,百,仍,立,访",文,TRUE,2456,yes
3,2,13,retrieval,cn,2,0,反,反,"寺,左,百,仍,立,访",反,TRUE,2017.9999999995343,no
3,2,13,retrieval,cn,3,3,灭,曰,"寺,左,百,仍,立,访",曰,TRUE,2992,yes
3,2,13,retrieval,cn,4,2,古,农,"寺,左,百,仍,立,访",古,FALSE,2912,yes
3,2,13,retrieval,cn,5,5,汇,汇,"寺,左,百,仍,立,访",汇,TRUE,6286,no
3,2,13,retrieval,cn,6,1,牛,牛,"寺,左,百,仍,立,访",牛,TRUE,1524.0000000004657,no
3,2,13,debrief,cn,NA,NA,NA,NA,NA,NULL,NA,NA,NA
3,2,14,memory,cn,1,0,主,NA,NA,NULL,NA,NA,NA
3,2,14,memory,cn,2,1,旦,NA,NA,NULL,NA,NA,NA
3,2,14,memory,cn,3,2,匀,NA,NA,NULL,NA,NA,NA
3,2,14,memory,cn,4,3,吗,NA,NA,NULL,NA,NA,NA
3,2,14,memory,cn,5,4,协,NA,NA,NULL,NA,NA,NA
3,2,14,memory,cn,6,5,发,NA,NA,NULL,NA,NA,NA
3,2,14,updating,cn,1,3,吗,北,NA,NULL,NA,NA,yes
3,2,14,updating,cn,2,5,发,印,NA,NULL,NA,NA,yes
3,2,14,updating,cn,3,1,旦,导,NA,NULL,NA,NA,yes
3,2,14,retrieval,cn,1,0,主,主,"乔,列,产,在,江,斗",主,TRUE,1724.9999999995343,no
3,2,14,retrieval,cn,2,5,发,印,"乔,列,产,在,江,斗",印,TRUE,1846,yes
3,2,14,retrieval,cn,3,2,匀,匀,"乔,列,产,在,江,斗",匀,TRUE,2310,no
3,2,14,retrieval,cn,4,3,吗,北,"乔,列,产,在,江,斗",北,TRUE,1546,yes
3,2,14,retrieval,cn,5,1,旦,导,"乔,列,产,在,江,斗",导,TRUE,2075,yes
3,2,14,retrieval,cn,6,4,协,协,"乔,列,产,在,江,斗",协,TRUE,1935,no
3,2,14,debrief,cn,NA,NA,NA,NA,NA,NULL,NA,NA,NA
3,2,15,memory,cn,1,0,异,NA,NA,NULL,NA,NA,NA
3,2,15,memory,cn,2,1,韦,NA,NA,NULL,NA,NA,NA
3,2,15,memory,cn,3,2,尼,NA,NA,NULL,NA,NA,NA
3,2,15,memory,cn,4,3,仅,NA,NA,NULL,NA,NA,NA
3,2,15,memory,cn,5,4,争,NA,NA,NULL,NA,NA,NA
3,2,15,memory,cn,6,5,廷,NA,NA,NULL,NA,NA,NA
3,2,15,updating,cn,1,2,尼,乐,NA,NULL,NA,NA,yes
3,2,15,updating,cn,2,1,韦,伦,NA,NULL,NA,NA,yes
3,2,15,updating,cn,3,3,仅,汉,NA,NULL,NA,NA,yes
3,2,15,retrieval,cn,1,5,廷,廷,"任,刚,伙,耳,爷,年",廷,TRUE,2396,no
3,2,15,retrieval,cn,2,2,尼,乐,"任,刚,伙,耳,爷,年",乐,TRUE,1436,yes
3,2,15,retrieval,cn,3,4,争,争,"任,刚,伙,耳,爷,年",争,TRUE,1963,no
3,2,15,retrieval,cn,4,1,韦,伦,"任,刚,伙,耳,爷,年",伦,TRUE,3058,yes
3,2,15,retrieval,cn,5,3,仅,汉,"任,刚,伙,耳,爷,年",汉,TRUE,1420,yes
3,2,15,retrieval,cn,6,0,异,异,"任,刚,伙,耳,爷,年",异,TRUE,3766,no
3,2,15,debrief,cn,NA,NA,NA,NA,NA,NULL,NA,NA,NA
3,2,16,memory,cn,1,0,刘,NA,NA,NULL,NA,NA,NA
3,2,16,memory,cn,2,1,圣,NA,NA,NULL,NA,NA,NA
3,2,16,memory,cn,3,2,达,NA,NA,NULL,NA,NA,NA
3,2,16,memory,cn,4,3,去,NA,NA,NULL,NA,NA,NA
3,2,16,memory,cn,5,4,汁,NA,NA,NULL,NA,NA,NA
3,2,16,memory,cn,6,5,不,NA,NA,NULL,NA,NA,NA
3,2,16,updating,cn,1,3,去,闭,NA,NULL,NA,NA,yes
3,2,16,updating,cn,2,5,不,石,NA,NULL,NA,NA,yes
3,2,16,updating,cn,3,4,汁,毕,NA,NULL,NA,NA,yes
3,2,16,retrieval,cn,1,3,去,闭,"有,当,如,那,历,杂",闭,TRUE,2340,yes
3,2,16,retrieval,cn,2,0,刘,刘,"有,当,如,那,历,杂",刘,TRUE,1689,no
3,2,16,retrieval,cn,3,2,达,达,"有,当,如,那,历,杂",达,TRUE,1272.0000000004657,no
3,2,16,retrieval,cn,4,4,汁,毕,"有,当,如,那,历,杂",毕,TRUE,2709,yes
3,2,16,retrieval,cn,5,1,圣,圣,"有,当,如,那,历,杂",圣,TRUE,2646,no
3,2,16,retrieval,cn,6,5,不,石,"有,当,如,那,历,杂",石,TRUE,1035,yes
3,2,16,debrief,cn,NA,NA,NA,NA,NA,NULL,NA,NA,NA
3,2,17,memory,cn,1,0,六,NA,NA,NULL,NA,NA,NA
3,2,17,memory,cn,2,1,至,NA,NA,NULL,NA,NA,NA
3,2,17,memory,cn,3,2,叫,NA,NA,NULL,NA,NA,NA
3,2,17,memory,cn,4,3,匠,NA,NA,NULL,NA,NA,NA
3,2,17,memory,cn,5,4,妄,NA,NA,NULL,NA,NA,NA
3,2,17,memory,cn,6,5,尤,NA,NA,NULL,NA,NA,NA
3,2,17,updating,cn,1,5,尤,风,NA,NULL,NA,NA,yes
3,2,17,updating,cn,2,4,妄,仪,NA,NULL,NA,NA,yes
3,2,17,updating,cn,3,3,匠,由,NA,NULL,NA,NA,yes
3,2,17,retrieval,cn,1,0,六,六,"讨,介,旨,兴,朱,米",六,TRUE,2813,no
3,2,17,retrieval,cn,2,5,尤,风,"讨,介,旨,兴,朱,米",风,TRUE,4393,yes
3,2,17,retrieval,cn,3,1,至,至,"讨,介,旨,兴,朱,米",至,TRUE,4932.000000000466,no
3,2,17,retrieval,cn,4,4,妄,仪,"讨,介,旨,兴,朱,米",仪,TRUE,4925,yes
3,2,17,retrieval,cn,5,2,叫,叫,"讨,介,旨,兴,朱,米",叫,TRUE,2509,no
3,2,17,retrieval,cn,6,3,匠,由,"讨,介,旨,兴,朱,米",由,TRUE,6998,yes
3,2,17,debrief,cn,NA,NA,NA,NA,NA,NULL,NA,NA,NA
3,2,18,memory,cn,1,0,羊,NA,NA,NULL,NA,NA,NA
3,2,18,memory,cn,2,1,交,NA,NA,NULL,NA,NA,NA
3,2,18,memory,cn,3,2,目,NA,NA,NULL,NA,NA,NA
3,2,18,memory,cn,4,3,众,NA,NA,NULL,NA,NA,NA
3,2,18,memory,cn,5,4,论,NA,NA,NULL,NA,NA,NA
3,2,18,memory,cn,6,5,则,NA,NA,NULL,NA,NA,NA
3,2,18,updating,cn,1,0,羊,刊,NA,NULL,NA,NA,yes
3,2,18,updating,cn,2,2,目,买,NA,NULL,NA,NA,yes
3,2,18,updating,cn,3,1,交,手,NA,NULL,NA,NA,yes
3,2,18,retrieval,cn,1,2,目,买,"长,中,污,厅,卢,舌",买,TRUE,2418,yes
3,2,18,retrieval,cn,2,3,众,众,"长,中,污,厅,卢,舌",众,TRUE,4164,no
3,2,18,retrieval,cn,3,5,则,则,"长,中,污,厅,卢,舌",则,TRUE,1268,no
3,2,18,retrieval,cn,4,1,交,手,"长,中,污,厅,卢,舌",手,TRUE,2154,yes
3,2,18,retrieval,cn,5,0,羊,刊,"长,中,污,厅,卢,舌",刊,TRUE,1072.0000000004657,yes
3,2,18,retrieval,cn,6,4,论,论,"长,中,污,厅,卢,舌",论,TRUE,1974,no
3,2,18,debrief,cn,NA,NA,NA,NA,NA,NULL,NA,NA,NA
3,2,19,memory,cn,1,0,孕,NA,NA,NULL,NA,NA,NA
3,2,19,memory,cn,2,1,布,NA,NA,NULL,NA,NA,NA
3,2,19,memory,cn,3,2,仆,NA,NA,NULL,NA,NA,NA
3,2,19,memory,cn,4,3,厉,NA,NA,NULL,NA,NA,NA
3,2,19,memory,cn,5,4,讯,NA,NA,NULL,NA,NA,NA
3,2,19,memory,cn,6,5,皮,NA,NA,NULL,NA,NA,NA
3,2,19,updating,cn,1,0,孕,幼,NA,NULL,NA,NA,yes
3,2,19,updating,cn,2,2,仆,尘,NA,NULL,NA,NA,yes
3,2,19,updating,cn,3,3,厉,奶,NA,NULL,NA,NA,yes
3,2,19,retrieval,cn,1,2,仆,尘,"迈,世,天,创,吕,伐",尘,TRUE,8887,yes
3,2,19,retrieval,cn,2,1,布,布,"迈,世,天,创,吕,伐",布,TRUE,4311,no
3,2,19,retrieval,cn,3,3,厉,奶,"迈,世,天,创,吕,伐",奶,TRUE,1088,yes
3,2,19,retrieval,cn,4,4,讯,讯,"迈,世,天,创,吕,伐",NULL,FALSE,NA,no
3,2,19,retrieval,cn,5,0,孕,幼,"迈,世,天,创,吕,伐",厉,FALSE,2263,yes
3,2,19,retrieval,cn,6,5,皮,皮,"迈,世,天,创,吕,伐",吕,FALSE,1952,no
3,2,19,debrief,cn,NA,NA,NA,NA,NA,NULL,NA,NA,NA
3,2,20,memory,cn,1,0,轨,NA,NA,NULL,NA,NA,NA
3,2,20,memory,cn,2,1,防,NA,NA,NULL,NA,NA,NA
3,2,20,memory,cn,3,2,穴,NA,NA,NULL,NA,NA,NA
3,2,20,memory,cn,4,3,礼,NA,NA,NULL,NA,NA,NA
3,2,20,memory,cn,5,4,讼,NA,NA,NULL,NA,NA,NA
3,2,20,memory,cn,6,5,旧,NA,NA,NULL,NA,NA,NA
3,2,20,updating,cn,1,0,轨,无,NA,NULL,NA,NA,yes
3,2,20,updating,cn,2,2,穴,竹,NA,NULL,NA,NA,yes
3,2,20,updating,cn,3,4,讼,外,NA,NULL,NA,NA,yes
3,2,20,retrieval,cn,1,3,礼,礼,"红,付,它,吉,甲,公",轨,FALSE,1676,no
3,2,20,retrieval,cn,2,5,旧,旧,"红,付,它,吉,甲,公",旧,TRUE,2407,no
3,2,20,retrieval,cn,3,2,穴,竹,"红,付,它,吉,甲,公",竹,TRUE,2669,yes
3,2,20,retrieval,cn,4,1,防,防,"红,付,它,吉,甲,公",讼,FALSE,11596,no
3,2,20,retrieval,cn,5,0,轨,无,"红,付,它,吉,甲,公",吉,FALSE,5136,yes
3,2,20,retrieval,cn,6,4,讼,外,"红,付,它,吉,甲,公",防,FALSE,1136,yes
3,2,20,debrief,cn,NA,NA,NA,NA,NA,NULL,NA,NA,NA
1,1,1,memory,cn,1,0,册,NA,NA,NULL,NA,NA,NA
1,1,1,memory,cn,2,1,尺,NA,NA,NULL,NA,NA,NA
1,1,1,memory,cn,3,2,史,NA,NA,NULL,NA,NA,NA
1,1,1,memory,cn,4,3,记,NA,NA,NULL,NA,NA,NA
1,1,1,memory,cn,5,4,异,NA,NA,NULL,NA,NA,NA
1,1,1,memory,cn,6,5,巴,NA,NA,NULL,NA,NA,NA
1,1,1,updating,cn,1,3,记,训,NA,NULL,NA,NA,yes
1,1,1,updating,cn,2,2,史,军,NA,NULL,NA,NA,yes
1,1,1,updating,cn,3,4,异,处,NA,NULL,NA,NA,yes
1,1,1,retrieval,cn,1,0,册,册,"同,江,衣,肌,片,争",册,TRUE,2683.5,no
1,1,1,retrieval,cn,2,3,记,训,"同,江,衣,肌,片,争",训,TRUE,2447,yes
1,1,1,retrieval,cn,3,2,史,军,"同,江,衣,肌,片,争",军,TRUE,1289.2000002861023,yes
1,1,1,retrieval,cn,4,5,巴,巴,"同,江,衣,肌,片,争",巴,TRUE,2014,no
1,1,1,retrieval,cn,5,1,尺,尺,"同,江,衣,肌,片,争",尺,TRUE,3736.2999997138977,no
1,1,1,retrieval,cn,6,4,异,处,"同,江,衣,肌,片,争",处,TRUE,2918.199999809265,yes
1,1,1,debrief,cn,NA,NA,NA,NA,NA,NULL,NA,NA,NA
1,1,2,memory,cn,1,0,不,NA,NA,NULL,NA,NA,NA
1,1,2,memory,cn,2,1,邓,NA,NA,NULL,NA,NA,NA
1,1,2,memory,cn,3,2,场,NA,NA,NULL,NA,NA,NA
1,1,2,memory,cn,4,3,交,NA,NA,NULL,NA,NA,NA
1,1,2,memory,cn,5,4,兄,NA,NA,NULL,NA,NA,NA
1,1,2,memory,cn,6,5,访,NA,NA,NULL,NA,NA,NA
1,1,2,updating,cn,1,4,兄,汁,NA,NULL,NA,NA,yes
1,1,2,updating,cn,2,0,不,由,NA,NULL,NA,NA,yes
1,1,2,updating,cn,3,3,交,网,NA,NULL,NA,NA,yes
1,1,2,retrieval,cn,1,3,交,网,"爷,匹,吁,印,休,回",网,TRUE,2394.5999999046326,yes
1,1,2,retrieval,cn,2,0,不,由,"爷,匹,吁,印,休,回",由,TRUE,1798.6999998092651,yes
1,1,2,retrieval,cn,3,5,访,访,"爷,匹,吁,印,休,回",访,TRUE,3262.0999999046326,no
1,1,2,retrieval,cn,4,4,兄,汁,"爷,匹,吁,印,休,回",NULL,FALSE,NA,yes
1,1,2,retrieval,cn,5,1,邓,邓,"爷,匹,吁,印,休,回",邓,TRUE,4056.2999997138977,no
1,1,2,retrieval,cn,6,2,场,场,"爷,匹,吁,印,休,回",网,FALSE,3985,no
1,1,2,debrief,cn,NA,NA,NA,NA,NA,NULL,NA,NA,NA
1,1,3,memory,cn,1,0,甘,NA,NA,NULL,NA,NA,NA
1,1,3,memory,cn,2,1,文,NA,NA,NULL,NA,NA,NA
1,1,3,memory,cn,3,2,术,NA,NA,NULL,NA,NA,NA
1,1,3,memory,cn,4,3,扫,NA,NA,NULL,NA,NA,NA
1,1,3,memory,cn,5,4,兰,NA,NA,NULL,NA,NA,NA
1,1,3,memory,cn,6,5,行,NA,NA,NULL,NA,NA,NA
1,1,3,updating,cn,1,2,术,各,NA,NULL,NA,NA,yes
1,1,3,updating,cn,2,5,行,全,NA,NULL,NA,NA,yes
1,1,3,updating,cn,3,3,扫,丛,NA,NULL,NA,NA,yes
1,1,3,retrieval,cn,1,3,扫,丛,"内,节,长,巨,叫,吊",丛,TRUE,5668.199999809265,yes
1,1,3,retrieval,cn,2,2,术,各,"内,节,长,巨,叫,吊",术,FALSE,4078.5999999046326,yes
1,1,3,retrieval,cn,3,5,行,全,"内,节,长,巨,叫,吊",全,TRUE,2520.800000190735,yes
1,1,3,retrieval,cn,4,1,文,文,"内,节,长,巨,叫,吊",文,TRUE,1839.8000001907349,no
1,1,3,retrieval,cn,5,0,甘,甘,"内,节,长,巨,叫,吊",甘,TRUE,2611,no
1,1,3,retrieval,cn,6,4,兰,兰,"内,节,长,巨,叫,吊",兰,TRUE,3719.9000000953674,no
1,1,3,debrief,cn,NA,NA,NA,NA,NA,NULL,NA,NA,NA
1,1,4,memory,cn,1,0,则,NA,NA,NULL,NA,NA,NA
1,1,4,memory,cn,2,1,瓦,NA,NA,NULL,NA,NA,NA
1,1,4,memory,cn,3,2,幻,NA,NA,NULL,NA,NA,NA
1,1,4,memory,cn,4,3,包,NA,NA,NULL,NA,NA,NA
1,1,4,memory,cn,5,4,帅,NA,NA,NULL,NA,NA,NA
1,1,4,memory,cn,6,5,五,NA,NA,NULL,NA,NA,NA
1,1,4,updating,cn,1,3,包,仔,NA,NULL,NA,NA,yes
1,1,4,updating,cn,2,2,幻,忆,NA,NULL,NA,NA,yes
1,1,4,updating,cn,3,0,则,功,NA,NULL,NA,NA,yes
1,1,4,retrieval,cn,1,1,瓦,瓦,"用,示,止,字,奶,击",瓦,TRUE,2763.199999809265,no
1,1,4,retrieval,cn,2,3,包,仔,"用,示,止,字,奶,击",包,FALSE,3554.800000190735,yes
1,1,4,retrieval,cn,3,0,则,功,"用,示,止,字,奶,击",则,FALSE,9493.5,yes
1,1,4,retrieval,cn,4,4,帅,帅,"用,示,止,字,奶,击",幻,FALSE,2000.1999998092651,no
1,1,4,retrieval,cn,5,5,五,五,"用,示,止,字,奶,击",五,TRUE,3011,no
1,1,4,retrieval,cn,6,2,幻,忆,"用,示,止,字,奶,击",仔,FALSE,3525,yes
1,1,4,debrief,cn,NA,NA,NA,NA,NA,NULL,NA,NA,NA
1,1,5,memory,cn,1,0,云,NA,NA,NULL,NA,NA,NA
1,1,5,memory,cn,2,1,地,NA,NA,NULL,NA,NA,NA
1,1,5,memory,cn,3,2,计,NA,NA,NULL,NA,NA,NA
1,1,5,memory,cn,4,3,方,NA,NA,NULL,NA,NA,NA
1,1,5,memory,cn,5,4,机,NA,NA,NULL,NA,NA,NA
1,1,5,memory,cn,6,5,扩,NA,NA,NULL,NA,NA,NA
1,1,5,updating,cn,1,1,地,老,NA,NULL,NA,NA,yes
1,1,5,updating,cn,2,5,扩,劝,NA,NULL,NA,NA,yes
1,1,5,updating,cn,3,2,计,民,NA,NULL,NA,NA,yes
1,1,5,retrieval,cn,1,3,方,方,"买,代,队,廷,议,寻",方,TRUE,3446,no
1,1,5,retrieval,cn,2,1,地,老,"买,代,队,廷,议,寻",老,TRUE,1746.5999999046326,yes
1,1,5,retrieval,cn,3,5,扩,劝,"买,代,队,廷,议,寻",劝,TRUE,1752.8999996185303,yes
1,1,5,retrieval,cn,4,2,计,民,"买,代,队,廷,议,寻",民,TRUE,1886.3000001907349,yes
1,1,5,retrieval,cn,5,0,云,云,"买,代,队,廷,议,寻",云,TRUE,1645.2000002861023,no
1,1,5,retrieval,cn,6,4,机,机,"买,代,队,廷,议,寻",机,TRUE,3128.5,no
1,1,5,debrief,cn,NA,NA,NA,NA,NA,NULL,NA,NA,NA
1,1,6,memory,cn,1,0,玄,NA,NA,NULL,NA,NA,NA
1,1,6,memory,cn,2,1,平,NA,NA,NULL,NA,NA,NA
1,1,6,memory,cn,3,2,斗,NA,NA,NULL,NA,NA,NA
1,1,6,memory,cn,4,3,石,NA,NA,NULL,NA,NA,NA
1,1,6,memory,cn,5,4,伐,NA,NA,NULL,NA,NA,NA
1,1,6,memory,cn,6,5,叭,NA,NA,NULL,NA,NA,NA
1,1,6,updating,cn,1,2,斗,协,NA,NULL,NA,NA,yes
1,1,6,updating,cn,2,3,石,丰,NA,NULL,NA,NA,yes
1,1,6,updating,cn,3,4,伐,血,NA,NULL,NA,NA,yes
1,1,6,retrieval,cn,1,2,斗,协,"支,劣,合,世,加,观",协,TRUE,2177.9000000953674,yes
1,1,6,retrieval,cn,2,4,伐,血,"支,劣,合,世,加,观",血,TRUE,1787.4000000953674,yes
1,1,6,retrieval,cn,3,1,平,平,"支,劣,合,世,加,观",平,TRUE,3312.6000003814697,no
1,1,6,retrieval,cn,4,5,叭,叭,"支,劣,合,世,加,观",叭,TRUE,2298.8999996185303,no
1,1,6,retrieval,cn,5,3,石,丰,"支,劣,合,世,加,观",丰,TRUE,3490.699999809265,yes
1,1,6,retrieval,cn,6,0,玄,玄,"支,劣,合,世,加,观",玄,TRUE,4324.900000095367,no
1,1,6,debrief,cn,NA,NA,NA,NA,NA,NULL,NA,NA,NA
1,1,7,memory,cn,1,0,伊,NA,NA,NULL,NA,NA,NA
1,1,7,memory,cn,2,1,冰,NA,NA,NULL,NA,NA,NA
1,1,7,memory,cn,3,2,阶,NA,NA,NULL,NA,NA,NA
1,1,7,memory,cn,4,3,订,NA,NA,NULL,NA,NA,NA
1,1,7,memory,cn,5,4,什,NA,NA,NULL,NA,NA,NA
1,1,7,memory,cn,6,5,介,NA,NA,NULL,NA,NA,NA
1,1,7,updating,cn,1,3,订,亦,NA,NULL,NA,NA,yes
1,1,7,updating,cn,2,5,介,引,NA,NULL,NA,NA,yes
1,1,7,updating,cn,3,2,阶,辽,NA,NULL,NA,NA,yes
1,1,7,retrieval,cn,1,4,什,什,"外,中,斥,曲,们,正",什,TRUE,3200.2000002861023,no
1,1,7,retrieval,cn,2,5,介,引,"外,中,斥,曲,们,正",引,TRUE,2647,yes
1,1,7,retrieval,cn,3,0,伊,伊,"外,中,斥,曲,们,正",伊,TRUE,4980.199999809265,no
1,1,7,retrieval,cn,4,3,订,亦,"外,中,斥,曲,们,正",亦,TRUE,6154,yes
1,1,7,retrieval,cn,5,2,阶,辽,"外,中,斥,曲,们,正",辽,TRUE,2265.0999999046326,yes
1,1,7,retrieval,cn,6,1,冰,冰,"外,中,斥,曲,们,正",冰,TRUE,2345.0999999046326,no
1,1,7,debrief,cn,NA,NA,NA,NA,NA,NULL,NA,NA,NA
1,1,8,memory,cn,1,0,伪,NA,NA,NULL,NA,NA,NA
1,1,8,memory,cn,2,1,厅,NA,NA,NULL,NA,NA,NA
1,1,8,memory,cn,3,2,历,NA,NA,NULL,NA,NA,NA
1,1,8,memory,cn,4,3,母,NA,NA,NULL,NA,NA,NA
1,1,8,memory,cn,5,4,认,NA,NA,NULL,NA,NA,NA
1,1,8,memory,cn,6,5,叶,NA,NA,NULL,NA,NA,NA
1,1,8,updating,cn,1,3,母,仙,NA,NULL,NA,NA,yes
1,1,8,updating,cn,2,4,认,生,NA,NULL,NA,NA,yes
1,1,8,updating,cn,3,5,叶,成,NA,NULL,NA,NA,yes
1,1,8,retrieval,cn,1,1,厅,厅,"宅,归,权,穴,伦,书",厅,TRUE,3133.9000000953674,no
1,1,8,retrieval,cn,2,2,历,历,"宅,归,权,穴,伦,书",叶,FALSE,10398.900000095367,no
1,1,8,retrieval,cn,3,4,认,生,"宅,归,权,穴,伦,书",生,TRUE,4215,yes
1,1,8,retrieval,cn,4,3,母,仙,"宅,归,权,穴,伦,书",仙,TRUE,1250.1999998092651,yes
1,1,8,retrieval,cn,5,5,叶,成,"宅,归,权,穴,伦,书",成,TRUE,1244,yes
1,1,8,retrieval,cn,6,0,伪,伪,"宅,归,权,穴,伦,书",伪,TRUE,2934,no
1,1,8,debrief,cn,NA,NA,NA,NA,NA,NULL,NA,NA,NA
1,1,9,memory,cn,1,0,叹,NA,NA,NULL,NA,NA,NA
1,1,9,memory,cn,2,1,龙,NA,NA,NULL,NA,NA,NA
1,1,9,memory,cn,3,2,王,NA,NA,NULL,NA,NA,NA
1,1,9,memory,cn,4,3,艺,NA,NA,NULL,NA,NA,NA
1,1,9,memory,cn,5,4,师,NA,NA,NULL,NA,NA,NA
1,1,9,memory,cn,6,5,那,NA,NA,NULL,NA,NA,NA
1,1,9,updating,cn,1,1,龙,孙,NA,NULL,NA,NA,yes
1,1,9,updating,cn,2,5,那,乏,NA,NULL,NA,NA,yes
1,1,9,updating,cn,3,4,师,公,NA,NULL,NA,NA,yes
1,1,9,retrieval,cn,1,1,龙,孙,"爪,井,分,边,奸,虫",孙,TRUE,2928.7000002861023,yes
1,1,9,retrieval,cn,2,4,师,公,"爪,井,分,边,奸,虫",师,FALSE,8774.5,yes
1,1,9,retrieval,cn,3,0,叹,叹,"爪,井,分,边,奸,虫",叹,TRUE,2268.5,no
1,1,9,retrieval,cn,4,2,王,王,"爪,井,分,边,奸,虫",王,TRUE,1987.8000001907349,no
1,1,9,retrieval,cn,5,5,那,乏,"爪,井,分,边,奸,虫",龙,FALSE,2534.5,yes
1,1,9,retrieval,cn,6,3,艺,艺,"爪,井,分,边,奸,虫",艺,TRUE,8326.699999809265,no
1,1,9,debrief,cn,NA,NA,NA,NA,NA,NULL,NA,NA,NA
1,1,10,memory,cn,1,0,汗,NA,NA,NULL,NA,NA,NA
1,1,10,memory,cn,2,1,只,NA,NA,NULL,NA,NA,NA
1,1,10,memory,cn,3,2,另,NA,NA,NULL,NA,NA,NA
1,1,10,memory,cn,4,3,业,NA,NA,NULL,NA,NA,NA
1,1,10,memory,cn,5,4,扑,NA,NA,NULL,NA,NA,NA
1,1,10,memory,cn,6,5,少,NA,NA,NULL,NA,NA,NA
1,1,10,updating,cn,1,2,另,自,NA,NULL,NA,NA,yes
1,1,10,updating,cn,2,0,汗,让,NA,NULL,NA,NA,yes
1,1,10,updating,cn,3,3,业,当,NA,NULL,NA,NA,yes
1,1,10,retrieval,cn,1,5,少,少,"切,号,丙,吓,优,戏",少,TRUE,3268.199999809265,no
1,1,10,retrieval,cn,2,3,业,当,"切,号,丙,吓,优,戏",当,TRUE,3431.7999997138977,yes
1,1,10,retrieval,cn,3,0,汗,让,"切,号,丙,吓,优,戏",汗,FALSE,1803.0999999046326,yes
1,1,10,retrieval,cn,4,1,只,只,"切,号,丙,吓,优,戏",只,TRUE,1881.1000003814697,no
1,1,10,retrieval,cn,5,2,另,自,"切,号,丙,吓,优,戏",自,TRUE,1209,yes
1,1,10,retrieval,cn,6,4,扑,扑,"切,号,丙,吓,优,戏",扑,TRUE,3005.7999997138977,no
1,1,10,debrief,cn,NA,NA,NA,NA,NA,NULL,NA,NA,NA
1,1,11,memory,cn,1,0,勾,NA,NA,NULL,NA,NA,NA
1,1,11,memory,cn,2,1,寺,NA,NA,NULL,NA,NA,NA
1,1,11,memory,cn,3,2,打,NA,NA,NULL,NA,NA,NA
1,1,11,memory,cn,4,3,百,NA,NA,NULL,NA,NA,NA
1,1,11,memory,cn,5,4,凶,NA,NA,NULL,NA,NA,NA
1,1,11,memory,cn,6,5,车,NA,NA,NULL,NA,NA,NA
1,1,11,updating,cn,1,1,寺,色,NA,NULL,NA,NA,yes
1,1,11,updating,cn,2,5,车,旧,NA,NULL,NA,NA,yes
1,1,11,updating,cn,3,3,百,丑,NA,NULL,NA,NA,yes
1,1,11,retrieval,cn,1,4,凶,凶,"刑,州,份,托,芝,奴",托,FALSE,18005.599999904633,no
1,1,11,retrieval,cn,2,3,百,丑,"刑,州,份,托,芝,奴",丑,TRUE,3493.5,yes
1,1,11,retrieval,cn,3,0,勾,勾,"刑,州,份,托,芝,奴",勾,TRUE,3005.4000000953674,no
1,1,11,retrieval,cn,4,5,车,旧,"刑,州,份,托,芝,奴",丑,FALSE,5824.599999904633,yes
1,1,11,retrieval,cn,5,1,寺,色,"刑,州,份,托,芝,奴",色,TRUE,2844,yes
1,1,11,retrieval,cn,6,2,打,打,"刑,州,份,托,芝,奴",打,TRUE,2446.300000190735,no
1,1,11,debrief,cn,NA,NA,NA,NA,NA,NULL,NA,NA,NA
1,1,12,memory,cn,1,0,考,NA,NA,NULL,NA,NA,NA
1,1,12,memory,cn,2,1,扎,NA,NA,NULL,NA,NA,NA
1,1,12,memory,cn,3,2,无,NA,NA,NULL,NA,NA,NA
1,1,12,memory,cn,4,3,阵,NA,NA,NULL,NA,NA,NA
1,1,12,memory,cn,5,4,问,NA,NA,NULL,NA,NA,NA
1,1,12,memory,cn,6,5,升,NA,NA,NULL,NA,NA,NA
1,1,12,updating,cn,1,2,无,主,NA,NULL,NA,NA,yes
1,1,12,updating,cn,2,0,考,刚,NA,NULL,NA,NA,yes
1,1,12,updating,cn,3,4,问,兆,NA,NULL,NA,NA,yes
1,1,12,retrieval,cn,1,4,问,兆,"友,好,司,朱,去,允",兆,TRUE,2392.5,yes
1,1,12,retrieval,cn,2,1,扎,扎,"友,好,司,朱,去,允",扎,TRUE,5089.5,no
1,1,12,retrieval,cn,3,0,考,刚,"友,好,司,朱,去,允",刚,TRUE,4047.5999999046326,yes
1,1,12,retrieval,cn,4,5,升,升,"友,好,司,朱,去,允",升,TRUE,3061.699999809265,no
1,1,12,retrieval,cn,5,3,阵,阵,"友,好,司,朱,去,允",考,FALSE,10254.400000095367,no
1,1,12,retrieval,cn,6,2,无,主,"友,好,司,朱,去,允",主,TRUE,2505.199999809265,yes
1,1,12,debrief,cn,NA,NA,NA,NA,NA,NULL,NA,NA,NA
1,1,13,memory,cn,1,0,凹,NA,NA,NULL,NA,NA,NA
1,1,13,memory,cn,2,1,右,NA,NA,NULL,NA,NA,NA
1,1,13,memory,cn,3,2,似,NA,NA,NULL,NA,NA,NA
1,1,13,memory,cn,4,3,写,NA,NA,NULL,NA,NA,NA
1,1,13,memory,cn,5,4,庆,NA,NA,NULL,NA,NA,NA
1,1,13,memory,cn,6,5,有,NA,NA,NULL,NA,NA,NA
1,1,13,updating,cn,1,2,似,壮,NA,NULL,NA,NA,yes
1,1,13,updating,cn,2,3,写,羽,NA,NULL,NA,NA,yes
1,1,13,updating,cn,3,4,庆,尖,NA,NULL,NA,NA,yes
1,1,13,retrieval,cn,1,3,写,羽,"竹,邦,丝,匀,见,吸",羽,TRUE,4992.599999904633,yes
1,1,13,retrieval,cn,2,5,有,有,"竹,邦,丝,匀,见,吸",有,TRUE,5811.900000095367,no
1,1,13,retrieval,cn,3,1,右,右,"竹,邦,丝,匀,见,吸",右,TRUE,4548,no
1,1,13,retrieval,cn,4,2,似,壮,"竹,邦,丝,匀,见,吸",壮,TRUE,4524.199999809265,yes
1,1,13,retrieval,cn,5,4,庆,尖,"竹,邦,丝,匀,见,吸",尖,TRUE,2922.9000000953674,yes
1,1,13,retrieval,cn,6,0,凹,凹,"竹,邦,丝,匀,见,吸",凹,TRUE,1444.1999998092651,no
1,1,13,debrief,cn,NA,NA,NA,NA,NA,NULL,NA,NA,NA
1,1,14,memory,cn,1,0,华,NA,NA,NULL,NA,NA,NA
1,1,14,memory,cn,2,1,次,NA,NA,NULL,NA,NA,NA
1,1,14,memory,cn,3,2,吃,NA,NA,NULL,NA,NA,NA
1,1,14,memory,cn,4,3,论,NA,NA,NULL,NA,NA,NA
1,1,14,memory,cn,5,4,忙,NA,NA,NULL,NA,NA,NA
1,1,14,memory,cn,6,5,且,NA,NA,NULL,NA,NA,NA
1,1,14,updating,cn,1,0,华,占,NA,NULL,NA,NA,yes
1,1,14,updating,cn,2,1,次,再,NA,NULL,NA,NA,yes
1,1,14,updating,cn,3,2,吃,斤,NA,NULL,NA,NA,yes
1,1,14,retrieval,cn,1,1,次,再,"手,先,化,风,团,匠",再,TRUE,5838.099999904633,yes
1,1,14,retrieval,cn,2,3,论,论,"手,先,化,风,团,匠",次,FALSE,4828.39999961853,no
1,1,14,retrieval,cn,3,4,忙,忙,"手,先,化,风,团,匠",忙,TRUE,2238.300000190735,no
1,1,14,retrieval,cn,4,2,吃,斤,"手,先,化,风,团,匠",斤,TRUE,2092.300000190735,yes
1,1,14,retrieval,cn,5,5,且,且,"手,先,化,风,团,匠",且,TRUE,1602.5999999046326,no
1,1,14,retrieval,cn,6,0,华,占,"手,先,化,风,团,匠",占,TRUE,1533.3000001907349,yes
1,1,14,debrief,cn,NA,NA,NA,NA,NA,NULL,NA,NA,NA
1,1,15,memory,cn,1,0,冬,NA,NA,NULL,NA,NA,NA
1,1,15,memory,cn,2,1,约,NA,NA,NULL,NA,NA,NA
1,1,15,memory,cn,3,2,欢,NA,NA,NULL,NA,NA,NA
1,1,15,memory,cn,4,3,曰,NA,NA,NULL,NA,NA,NA
1,1,15,memory,cn,5,4,办,NA,NA,NULL,NA,NA,NA
1,1,15,memory,cn,6,5,众,NA,NA,NULL,NA,NA,NA
1,1,15,updating,cn,1,2,欢,池,NA,NULL,NA,NA,yes
1,1,15,updating,cn,2,3,曰,电,NA,NULL,NA,NA,yes
1,1,15,updating,cn,3,4,办,开,NA,NULL,NA,NA,yes
1,1,15,retrieval,cn,1,5,众,众,"夺,孔,仍,半,孕,舌",众,TRUE,4889.299999713898,no
1,1,15,retrieval,cn,2,2,欢,池,"夺,孔,仍,半,孕,舌",池,TRUE,2965.699999809265,yes
1,1,15,retrieval,cn,3,0,冬,冬,"夺,孔,仍,半,孕,舌",冬,TRUE,1799.3000001907349,no
1,1,15,retrieval,cn,4,4,办,开,"夺,孔,仍,半,孕,舌",开,TRUE,3570.5,yes
1,1,15,retrieval,cn,5,3,曰,电,"夺,孔,仍,半,孕,舌",电,TRUE,2749.7000002861023,yes
1,1,15,retrieval,cn,6,1,约,约,"夺,孔,仍,半,孕,舌",约,TRUE,2391.199999809265,no
1,1,15,debrief,cn,NA,NA,NA,NA,NA,NULL,NA,NA,NA
1,1,16,memory,cn,1,0,危,NA,NA,NULL,NA,NA,NA
1,1,16,memory,cn,2,1,仓,NA,NA,NULL,NA,NA,NA
1,1,16,memory,cn,3,2,尘,NA,NA,NULL,NA,NA,NA
1,1,16,memory,cn,4,3,气,NA,NA,NULL,NA,NA,NA
1,1,16,memory,cn,5,4,岁,NA,NA,NULL,NA,NA,NA
1,1,16,memory,cn,6,5,过,NA,NA,NULL,NA,NA,NA
1,1,16,updating,cn,1,0,危,吗,NA,NULL,NA,NA,yes
1,1,16,updating,cn,2,5,过,伍,NA,NULL,NA,NA,yes
1,1,16,updating,cn,3,2,尘,汇,NA,NULL,NA,NA,yes
1,1,16,retrieval,cn,1,1,仓,仓,"邪,迁,元,巡,光,扔",仓,TRUE,1774.0999999046326,no
1,1,16,retrieval,cn,2,2,尘,汇,"邪,迁,元,巡,光,扔",尘,FALSE,6346.199999809265,yes
1,1,16,retrieval,cn,3,3,气,气,"邪,迁,元,巡,光,扔",气,TRUE,6958.5,no
1,1,16,retrieval,cn,4,5,过,伍,"邪,迁,元,巡,光,扔",伍,TRUE,2439.9000000953674,yes
1,1,16,retrieval,cn,5,0,危,吗,"邪,迁,元,巡,光,扔",吗,TRUE,1968.5,yes
1,1,16,retrieval,cn,6,4,岁,岁,"邪,迁,元,巡,光,扔",岁,TRUE,2861.199999809265,no
1,1,16,debrief,cn,NA,NA,NA,NA,NA,NULL,NA,NA,NA
1,1,17,memory,cn,1,0,对,NA,NA,NULL,NA,NA,NA
1,1,17,memory,cn,2,1,肉,NA,NA,NULL,NA,NA,NA
1,1,17,memory,cn,3,2,收,NA,NA,NULL,NA,NA,NA
1,1,17,memory,cn,4,3,甲,NA,NA,NULL,NA,NA,NA
1,1,17,memory,cn,5,4,卡,NA,NA,NULL,NA,NA,NA
1,1,17,memory,cn,6,5,吕,NA,NA,NULL,NA,NA,NA
1,1,17,updating,cn,1,2,收,申,NA,NULL,NA,NA,yes
1,1,17,updating,cn,2,0,对,天,NA,NULL,NA,NA,yes
1,1,17,updating,cn,3,1,肉,仁,NA,NULL,NA,NA,yes
1,1,17,retrieval,cn,1,5,吕,吕,"企,讯,台,价,污,叮",吕,TRUE,3044.5,no
1,1,17,retrieval,cn,2,1,肉,仁,"企,讯,台,价,污,叮",仁,TRUE,2961.3999996185303,yes
1,1,17,retrieval,cn,3,0,对,天,"企,讯,台,价,污,叮",天,TRUE,1604.6999998092651,yes
1,1,17,retrieval,cn,4,3,甲,甲,"企,讯,台,价,污,叮",甲,TRUE,1680,no
1,1,17,retrieval,cn,5,4,卡,卡,"企,讯,台,价,污,叮",卡,TRUE,1900.2999997138977,no
1,1,17,retrieval,cn,6,2,收,申,"企,讯,台,价,污,叮",申,TRUE,2215.300000190735,yes
1,1,17,debrief,cn,NA,NA,NA,NA,NA,NULL,NA,NA,NA
1,1,18,memory,cn,1,0,纪,NA,NA,NULL,NA,NA,NA
1,1,18,memory,cn,2,1,央,NA,NA,NULL,NA,NA,NA
1,1,18,memory,cn,3,2,币,NA,NA,NULL,NA,NA,NA
1,1,18,memory,cn,4,3,刘,NA,NA,NULL,NA,NA,NA
1,1,18,memory,cn,5,4,伙,NA,NA,NULL,NA,NA,NA
1,1,18,memory,cn,6,5,红,NA,NA,NULL,NA,NA,NA
1,1,18,updating,cn,1,4,伙,厌,NA,NULL,NA,NA,yes
1,1,18,updating,cn,2,5,红,付,NA,NULL,NA,NA,yes
1,1,18,updating,cn,3,3,刘,牙,NA,NULL,NA,NA,yes
1,1,18,retrieval,cn,1,3,刘,牙,"失,因,永,鸟,旬,火",牙,TRUE,2753.800000190735,yes
1,1,18,retrieval,cn,2,1,央,央,"失,因,永,鸟,旬,火",央,TRUE,2455.5,no
1,1,18,retrieval,cn,3,4,伙,厌,"失,因,永,鸟,旬,火",NULL,FALSE,NA,yes
1,1,18,retrieval,cn,4,5,红,付,"失,因,永,鸟,旬,火",付,TRUE,5702.200000286102,yes
1,1,18,retrieval,cn,5,2,币,币,"失,因,永,鸟,旬,火",币,TRUE,2120.5999999046326,no
1,1,18,retrieval,cn,6,0,纪,纪,"失,因,永,鸟,旬,火",纪,TRUE,1559.0999999046326,no
1,1,18,debrief,cn,NA,NA,NA,NA,NA,NULL,NA,NA,NA
1,1,19,memory,cn,1,0,互,NA,NA,NULL,NA,NA,NA
1,1,19,memory,cn,2,1,区,NA,NA,NULL,NA,NA,NA
1,1,19,memory,cn,3,2,夹,NA,NA,NULL,NA,NA,NA
1,1,19,memory,cn,4,3,乐,NA,NA,NULL,NA,NA,NA
1,1,19,memory,cn,5,4,木,NA,NA,NULL,NA,NA,NA
1,1,19,memory,cn,6,5,共,NA,NA,NULL,NA,NA,NA
1,1,19,updating,cn,1,2,夹,迅,NA,NULL,NA,NA,yes
1,1,19,updating,cn,2,4,木,耳,NA,NULL,NA,NA,yes
1,1,19,updating,cn,3,3,乐,卢,NA,NULL,NA,NA,yes
1,1,19,retrieval,cn,1,5,共,共,"务,牛,并,达,闯,太",共,TRUE,2984.800000190735,no
1,1,19,retrieval,cn,2,2,夹,迅,"务,牛,并,达,闯,太",迅,TRUE,3295.0999999046326,yes
1,1,19,retrieval,cn,3,4,木,耳,"务,牛,并,达,闯,太",耳,TRUE,4022.5999999046326,yes
1,1,19,retrieval,cn,4,3,乐,卢,"务,牛,并,达,闯,太",卢,TRUE,1180.0999999046326,yes
1,1,19,retrieval,cn,5,0,互,互,"务,牛,并,达,闯,太",互,TRUE,2902.9000000953674,no
1,1,19,retrieval,cn,6,1,区,区,"务,牛,并,达,闯,太",区,TRUE,1925.7000002861023,no
1,1,19,debrief,cn,NA,NA,NA,NA,NA,NULL,NA,NA,NA
1,1,20,memory,cn,1,0,负,NA,NA,NULL,NA,NA,NA
1,1,20,memory,cn,2,1,瓜,NA,NA,NULL,NA,NA,NA
1,1,20,memory,cn,3,2,句,NA,NA,NULL,NA,NA,NA
1,1,20,memory,cn,4,3,幼,NA,NA,NULL,NA,NA,NA
1,1,20,memory,cn,5,4,韦,NA,NA,NULL,NA,NA,NA
1,1,20,memory,cn,6,5,迈,NA,NA,NULL,NA,NA,NA
1,1,20,updating,cn,1,2,句,他,NA,NULL,NA,NA,yes
1,1,20,updating,cn,2,5,迈,反,NA,NULL,NA,NA,yes
1,1,20,updating,cn,3,0,负,玉,NA,NULL,NA,NA,yes
1,1,20,retrieval,cn,1,2,句,他,"后,轨,丘,阴,乎,关",他,TRUE,6214.599999904633,yes
1,1,20,retrieval,cn,2,4,韦,韦,"后,轨,丘,阴,乎,关",韦,TRUE,2562.7999997138977,no
1,1,20,retrieval,cn,3,5,迈,反,"后,轨,丘,阴,乎,关",反,TRUE,3072.5,yes
1,1,20,retrieval,cn,4,1,瓜,瓜,"后,轨,丘,阴,乎,关",瓜,TRUE,3809.5999999046326,no
1,1,20,retrieval,cn,5,3,幼,幼,"后,轨,丘,阴,乎,关",轨,FALSE,9625.400000095367,no
1,1,20,retrieval,cn,6,0,负,玉,"后,轨,丘,阴,乎,关",玉,TRUE,2340.300000190735,yes
1,1,20,debrief,cn,NA,NA,NA,NA,NA,NULL,NA,NA,NA
1,2,1,memory,kr,1,0,판,NA,NA,NULL,NA,NA,NA
1,2,1,memory,kr,2,1,양,NA,NA,NULL,NA,NA,NA
1,2,1,memory,kr,3,2,성,NA,NA,NULL,NA,NA,NA
1,2,1,memory,kr,4,3,열,NA,NA,NULL,NA,NA,NA
1,2,1,memory,kr,5,4,현,NA,NA,NULL,NA,NA,NA
1,2,1,memory,kr,6,5,날,NA,NA,NULL,NA,NA,NA
1,2,1,updating,kr,1,3,열,와,NA,NULL,NA,NA,yes
1,2,1,updating,kr,2,4,현,응,NA,NULL,NA,NA,yes
1,2,1,updating,kr,3,1,양,병,NA,NULL,NA,NA,yes
1,2,1,retrieval,kr,1,3,열,와,"되,건,권,제,주,런",양,FALSE,4965.300000190735,yes
1,2,1,retrieval,kr,2,5,날,날,"되,건,권,제,주,런",와,FALSE,3282.0999999046326,no
1,2,1,retrieval,kr,3,4,현,응,"되,건,권,제,주,런",응,TRUE,2341,yes
1,2,1,retrieval,kr,4,2,성,성,"되,건,권,제,주,런",열,FALSE,6297,no
1,2,1,retrieval,kr,5,1,양,병,"되,건,권,제,주,런",현,FALSE,4666.299999713898,yes
1,2,1,retrieval,kr,6,0,판,판,"되,건,권,제,주,런",주,FALSE,2151.0999999046326,no
1,2,1,debrief,kr,NA,NA,NA,NA,NA,NULL,NA,NA,NA
1,2,2,memory,kr,1,0,장,NA,NA,NULL,NA,NA,NA
1,2,2,memory,kr,2,1,맞,NA,NA,NULL,NA,NA,NA
1,2,2,memory,kr,3,2,과,NA,NA,NULL,NA,NA,NA
1,2,2,memory,kr,4,3,란,NA,NA,NULL,NA,NA,NA
1,2,2,memory,kr,5,4,법,NA,NA,NULL,NA,NA,NA
1,2,2,memory,kr,6,5,쩔,NA,NA,NULL,NA,NA,NA
1,2,2,updating,kr,1,0,장,월,NA,NULL,NA,NA,yes
1,2,2,updating,kr,2,5,쩔,포,NA,NULL,NA,NA,yes
1,2,2,updating,kr,3,3,란,맡,NA,NULL,NA,NA,yes
1,2,2,retrieval,kr,1,0,장,월,"철,박,풍,맑,익,모",월,TRUE,5782,yes
1,2,2,retrieval,kr,2,3,란,맡,"철,박,풍,맑,익,모",맑,FALSE,11029.599999904633,yes
1,2,2,retrieval,kr,3,2,과,과,"철,박,풍,맑,익,모",철,FALSE,6098.39999961853,no
1,2,2,retrieval,kr,4,1,맞,맞,"철,박,풍,맑,익,모",익,FALSE,6594.199999809265,no
1,2,2,retrieval,kr,5,4,법,법,"철,박,풍,맑,익,모",맞,FALSE,1746.0999999046326,no
1,2,2,retrieval,kr,6,5,쩔,포,"철,박,풍,맑,익,모",포,TRUE,2678.2000002861023,yes
1,2,2,debrief,kr,NA,NA,NA,NA,NA,NULL,NA,NA,NA
1,2,3,memory,kr,1,0,쓰,NA,NA,NULL,NA,NA,NA
1,2,3,memory,kr,2,1,석,NA,NA,NULL,NA,NA,NA
1,2,3,memory,kr,3,2,디,NA,NA,NULL,NA,NA,NA
1,2,3,memory,kr,4,3,벌,NA,NA,NULL,NA,NA,NA
1,2,3,memory,kr,5,4,것,NA,NA,NULL,NA,NA,NA
1,2,3,memory,kr,6,5,수,NA,NA,NULL,NA,NA,NA
1,2,3,updating,kr,1,5,수,탄,NA,NULL,NA,NA,yes
1,2,3,updating,kr,2,1,석,뿜,NA,NULL,NA,NA,yes
1,2,3,updating,kr,3,3,벌,징,NA,NULL,NA,NA,yes
1,2,3,retrieval,kr,1,5,수,탄,"상,급,타,를,섬,해",탄,TRUE,3691.5999999046326,yes
1,2,3,retrieval,kr,2,1,석,뿜,"상,급,타,를,섬,해",뿜,TRUE,1546,yes
1,2,3,retrieval,kr,3,2,디,디,"상,급,타,를,섬,해",타,FALSE,5336.800000190735,no
1,2,3,retrieval,kr,4,4,것,것,"상,급,타,를,섬,해",것,TRUE,2607.8999996185303,no
1,2,3,retrieval,kr,5,3,벌,징,"상,급,타,를,섬,해",급,FALSE,2320.7000002861023,yes
1,2,3,retrieval,kr,6,0,쓰,쓰,"상,급,타,를,섬,해",쓰,TRUE,3689.9000000953674,no
1,2,3,debrief,kr,NA,NA,NA,NA,NA,NULL,NA,NA,NA
1,2,4,memory,kr,1,0,한,NA,NA,NULL,NA,NA,NA
1,2,4,memory,kr,2,1,긴,NA,NA,NULL,NA,NA,NA
1,2,4,memory,kr,3,2,의,NA,NA,NULL,NA,NA,NA
1,2,4,memory,kr,4,3,불,NA,NA,NULL,NA,NA,NA
1,2,4,memory,kr,5,4,닌,NA,NA,NULL,NA,NA,NA
1,2,4,memory,kr,6,5,낙,NA,NA,NULL,NA,NA,NA
1,2,4,updating,kr,1,1,긴,개,NA,NULL,NA,NA,yes
1,2,4,updating,kr,2,5,낙,음,NA,NULL,NA,NA,yes
1,2,4,updating,kr,3,4,닌,럽,NA,NULL,NA,NA,yes
1,2,4,retrieval,kr,1,3,불,불,"궈,금,동,영,진,립",의,FALSE,7574,no
1,2,4,retrieval,kr,2,0,한,한,"궈,금,동,영,진,립",긴,FALSE,5345.099999904633,no
1,2,4,retrieval,kr,3,5,낙,음,"궈,금,동,영,진,립",NULL,FALSE,NA,yes
1,2,4,retrieval,kr,4,4,닌,럽,"궈,금,동,영,진,립",긴,FALSE,2538.5,yes
1,2,4,retrieval,kr,5,1,긴,개,"궈,금,동,영,진,립",음,FALSE,2798.199999809265,yes
1,2,4,retrieval,kr,6,2,의,의,"궈,금,동,영,진,립",궈,FALSE,1463.1999998092651,no
1,2,4,debrief,kr,NA,NA,NA,NA,NA,NULL,NA,NA,NA
1,2,5,memory,kr,1,0,말,NA,NA,NULL,NA,NA,NA
1,2,5,memory,kr,2,1,간,NA,NA,NULL,NA,NA,NA
1,2,5,memory,kr,3,2,일,NA,NA,NULL,NA,NA,NA
1,2,5,memory,kr,4,3,강,NA,NA,NULL,NA,NA,NA
1,2,5,memory,kr,5,4,만,NA,NA,NULL,NA,NA,NA
1,2,5,memory,kr,6,5,줄,NA,NA,NULL,NA,NA,NA
1,2,5,updating,kr,1,5,줄,각,NA,NULL,NA,NA,yes
1,2,5,updating,kr,2,4,만,환,NA,NULL,NA,NA,yes
1,2,5,updating,kr,3,0,말,생,NA,NULL,NA,NA,yes
1,2,5,retrieval,kr,1,2,일,일,"겠,합,는,극,차,혔",는,FALSE,9513.400000095367,no
1,2,5,retrieval,kr,2,1,간,간,"겠,합,는,극,차,혔",겠,FALSE,1257.0999999046326,no
1,2,5,retrieval,kr,3,3,강,강,"겠,합,는,극,차,혔",말,FALSE,984.5,no
1,2,5,retrieval,kr,4,4,만,환,"겠,합,는,극,차,혔",환,TRUE,1177.3000001907349,yes
1,2,5,retrieval,kr,5,0,말,생,"겠,합,는,극,차,혔",극,FALSE,863.7999997138977,yes
1,2,5,retrieval,kr,6,5,줄,각,"겠,합,는,극,차,혔",간,FALSE,1598.5999999046326,yes
1,2,5,debrief,kr,NA,NA,NA,NA,NA,NULL,NA,NA,NA
1,2,6,memory,kr,1,0,보,NA,NA,NULL,NA,NA,NA
1,2,6,memory,kr,2,1,럼,NA,NA,NULL,NA,NA,NA
1,2,6,memory,kr,3,2,가,NA,NA,NULL,NA,NA,NA
1,2,6,memory,kr,4,3,픔,NA,NA,NULL,NA,NA,NA
1,2,6,memory,kr,5,4,민,NA,NA,NULL,NA,NA,NA
1,2,6,memory,kr,6,5,엄,NA,NA,NULL,NA,NA,NA
1,2,6,updating,kr,1,2,가,표,NA,NULL,NA,NA,yes
1,2,6,updating,kr,2,3,픔,최,NA,NULL,NA,NA,yes
1,2,6,updating,kr,3,0,보,중,NA,NULL,NA,NA,yes
1,2,6,retrieval,kr,1,0,보,중,"며,숙,눈,렌,칙,하",중,TRUE,1856.1999998092651,yes
1,2,6,retrieval,kr,2,1,럼,럼,"며,숙,눈,렌,칙,하",엄,FALSE,5988.900000095367,no
1,2,6,retrieval,kr,3,4,민,민,"며,숙,눈,렌,칙,하",최,FALSE,4968.900000095367,no
1,2,6,retrieval,kr,4,3,픔,최,"며,숙,눈,렌,칙,하",숙,FALSE,1761.2999997138977,yes
1,2,6,retrieval,kr,5,2,가,표,"며,숙,눈,렌,칙,하",표,TRUE,2926.5999999046326,yes
1,2,6,retrieval,kr,6,5,엄,엄,"며,숙,눈,렌,칙,하",픔,FALSE,2339.5,no
1,2,6,debrief,kr,NA,NA,NA,NA,NA,NULL,NA,NA,NA
1,2,7,memory,kr,1,0,튜,NA,NA,NULL,NA,NA,NA
1,2,7,memory,kr,2,1,년,NA,NA,NULL,NA,NA,NA
1,2,7,memory,kr,3,2,참,NA,NA,NULL,NA,NA,NA
1,2,7,memory,kr,4,3,들,NA,NA,NULL,NA,NA,NA
1,2,7,memory,kr,5,4,당,NA,NA,NULL,NA,NA,NA
1,2,7,memory,kr,6,5,능,NA,NA,NULL,NA,NA,NA
1,2,7,updating,kr,1,5,능,어,NA,NULL,NA,NA,yes
1,2,7,updating,kr,2,0,튜,검,NA,NULL,NA,NA,yes
1,2,7,updating,kr,3,2,참,순,NA,NULL,NA,NA,yes
1,2,7,retrieval,kr,1,2,참,순,"게,적,듣,임,육,람",순,TRUE,4981.200000286102,yes
1,2,7,retrieval,kr,2,4,당,당,"게,적,듣,임,육,람",들,FALSE,2513.5,no
1,2,7,retrieval,kr,3,3,들,들,"게,적,듣,임,육,람",당,FALSE,2796.800000190735,no
1,2,7,retrieval,kr,4,0,튜,검,"게,적,듣,임,육,람",어,FALSE,2967.199999809265,yes
1,2,7,retrieval,kr,5,1,년,년,"게,적,듣,임,육,람",검,FALSE,3200.3999996185303,no
1,2,7,retrieval,kr,6,5,능,어,"게,적,듣,임,육,람",능,FALSE,2391.7000002861023,yes
1,2,7,debrief,kr,NA,NA,NA,NA,NA,NULL,NA,NA,NA
1,2,8,memory,kr,1,0,혈,NA,NA,NULL,NA,NA,NA
1,2,8,memory,kr,2,1,식,NA,NA,NULL,NA,NA,NA
1,2,8,memory,kr,3,2,증,NA,NA,NULL,NA,NA,NA
1,2,8,memory,kr,4,3,높,NA,NA,NULL,NA,NA,NA
1,2,8,memory,kr,5,4,획,NA,NA,NULL,NA,NA,NA
1,2,8,memory,kr,6,5,결,NA,NA,NULL,NA,NA,NA
1,2,8,updating,kr,1,2,증,국,NA,NULL,NA,NA,yes
1,2,8,updating,kr,2,4,획,부,NA,NULL,NA,NA,yes
1,2,8,updating,kr,3,1,식,경,NA,NULL,NA,NA,yes
1,2,8,retrieval,kr,1,4,획,부,"별,잇,듯,드,술,따",부,TRUE,2640.5999999046326,yes
1,2,8,retrieval,kr,2,3,높,높,"별,잇,듯,드,술,따",듯,FALSE,4417.300000190735,no
1,2,8,retrieval,kr,3,5,결,결,"별,잇,듯,드,술,따",식,FALSE,4127.5,no
1,2,8,retrieval,kr,4,1,식,경,"별,잇,듯,드,술,따",국,FALSE,4466.900000095367,yes
1,2,8,retrieval,kr,5,2,증,국,"별,잇,듯,드,술,따",높,FALSE,3522.5,yes
1,2,8,retrieval,kr,6,0,혈,혈,"별,잇,듯,드,술,따",혈,TRUE,1746.0999999046326,no
1,2,8,debrief,kr,NA,NA,NA,NA,NA,NULL,NA,NA,NA
1,2,9,memory,kr,1,0,휴,NA,NA,NULL,NA,NA,NA
1,2,9,memory,kr,2,1,빅,NA,NA,NULL,NA,NA,NA
1,2,9,memory,kr,3,2,은,NA,NA,NULL,NA,NA,NA
1,2,9,memory,kr,4,3,본,NA,NA,NULL,NA,NA,NA
1,2,9,memory,kr,5,4,세,NA,NA,NULL,NA,NA,NA
1,2,9,memory,kr,6,5,밝,NA,NA,NULL,NA,NA,NA
1,2,9,updating,kr,1,3,본,니,NA,NULL,NA,NA,yes
1,2,9,updating,kr,2,2,은,혀,NA,NULL,NA,NA,yes
1,2,9,updating,kr,3,4,세,관,NA,NULL,NA,NA,yes
1,2,9,retrieval,kr,1,5,밝,밝,"심,문,쉽,산,력,략",밝,TRUE,4048.5,no
1,2,9,retrieval,kr,2,1,빅,빅,"심,문,쉽,산,력,략",본,FALSE,4274.300000190735,no
1,2,9,retrieval,kr,3,2,은,혀,"심,문,쉽,산,력,략",니,FALSE,4453.199999809265,yes
1,2,9,retrieval,kr,4,0,휴,휴,"심,문,쉽,산,력,략",세,FALSE,6325.200000286102,no
1,2,9,retrieval,kr,5,4,세,관,"심,문,쉽,산,력,략",휴,FALSE,1603.2000002861023,yes
1,2,9,retrieval,kr,6,3,본,니,"심,문,쉽,산,력,략",휴,FALSE,777.2000002861023,yes
1,2,9,debrief,kr,NA,NA,NA,NA,NA,NULL,NA,NA,NA
1,2,10,memory,kr,1,0,입,NA,NA,NULL,NA,NA,NA
1,2,10,memory,kr,2,1,율,NA,NA,NULL,NA,NA,NA
1,2,10,memory,kr,3,2,막,NA,NA,NULL,NA,NA,NA
1,2,10,memory,kr,4,3,쓸,NA,NA,NULL,NA,NA,NA
1,2,10,memory,kr,5,4,론,NA,NA,NULL,NA,NA,NA
1,2,10,memory,kr,6,5,터,NA,NA,NULL,NA,NA,NA
1,2,10,updating,kr,1,4,론,호,NA,NULL,NA,NA,yes
1,2,10,updating,kr,2,1,율,덜,NA,NULL,NA,NA,yes
1,2,10,updating,kr,3,3,쓸,었,NA,NULL,NA,NA,yes
1,2,10,retrieval,kr,1,3,쓸,었,"억,컫,겨,빛,기,인",었,TRUE,3490.5,yes
1,2,10,retrieval,kr,2,1,율,덜,"억,컫,겨,빛,기,인",덜,TRUE,4254.599999904633,yes
1,2,10,retrieval,kr,3,2,막,막,"억,컫,겨,빛,기,인",막,TRUE,6543.900000095367,no
1,2,10,retrieval,kr,4,5,터,터,"억,컫,겨,빛,기,인",터,TRUE,2137.5,no
1,2,10,retrieval,kr,5,4,론,호,"억,컫,겨,빛,기,인",억,FALSE,2344.5999999046326,yes
1,2,10,retrieval,kr,6,0,입,입,"억,컫,겨,빛,기,인",율,FALSE,2972.2999997138977,no
1,2,10,debrief,kr,NA,NA,NA,NA,NA,NULL,NA,NA,NA
1,2,11,memory,kr,1,0,넘,NA,NA,NULL,NA,NA,NA
1,2,11,memory,kr,2,1,륙,NA,NA,NULL,NA,NA,NA
1,2,11,memory,kr,3,2,름,NA,NA,NULL,NA,NA,NA
1,2,11,memory,kr,4,3,뜨,NA,NA,NULL,NA,NA,NA
1,2,11,memory,kr,5,4,서,NA,NA,NULL,NA,NA,NA
1,2,11,memory,kr,6,5,면,NA,NA,NULL,NA,NA,NA
1,2,11,updating,kr,1,3,뜨,던,NA,NULL,NA,NA,yes
1,2,11,updating,kr,2,1,륙,씨,NA,NULL,NA,NA,yes
1,2,11,updating,kr,3,0,넘,찰,NA,NULL,NA,NA,yes
1,2,11,retrieval,kr,1,4,서,서,"위,격,변,천,공,낼",넘,FALSE,2828.199999809265,no
1,2,11,retrieval,kr,2,1,륙,씨,"위,격,변,천,공,낼",씨,TRUE,7972.800000190735,yes
1,2,11,retrieval,kr,3,5,면,면,"위,격,변,천,공,낼",변,FALSE,6492.599999904633,no
1,2,11,retrieval,kr,4,3,뜨,던,"위,격,변,천,공,낼",뜨,FALSE,2478.7000002861023,yes
1,2,11,retrieval,kr,5,2,름,름,"위,격,변,천,공,낼",낼,FALSE,3575.300000190735,no
1,2,11,retrieval,kr,6,0,넘,찰,"위,격,변,천,공,낼",천,FALSE,1195.5,yes
1,2,11,debrief,kr,NA,NA,NA,NA,NA,NULL,NA,NA,NA
1,2,12,memory,kr,1,0,패,NA,NA,NULL,NA,NA,NA
1,2,12,memory,kr,2,1,택,NA,NA,NULL,NA,NA,NA
1,2,12,memory,kr,3,2,즐,NA,NA,NULL,NA,NA,NA
1,2,12,memory,kr,4,3,같,NA,NA,NULL,NA,NA,NA
1,2,12,memory,kr,5,4,때,NA,NA,NULL,NA,NA,NA
1,2,12,memory,kr,6,5,렇,NA,NA,NULL,NA,NA,NA
1,2,12,updating,kr,1,0,패,못,NA,NULL,NA,NA,yes
1,2,12,updating,kr,2,4,때,떠,NA,NULL,NA,NA,yes
1,2,12,updating,kr,3,1,택,학,NA,NULL,NA,NA,yes
1,2,12,retrieval,kr,1,5,렇,렇,"그,태,완,께,규,구",같,FALSE,3621.7000002861023,no
1,2,12,retrieval,kr,2,0,패,못,"그,태,완,께,규,구",때,FALSE,7637.200000286102,yes
1,2,12,retrieval,kr,3,2,즐,즐,"그,태,완,께,규,구",완,FALSE,2361.5999999046326,no
1,2,12,retrieval,kr,4,1,택,학,"그,태,완,께,규,구",태,FALSE,2290.5,yes
1,2,12,retrieval,kr,5,3,같,같,"그,태,완,께,규,구",떠,FALSE,5511,no
1,2,12,retrieval,kr,6,4,때,떠,"그,태,완,께,규,구",렇,FALSE,1933.5,yes
1,2,12,debrief,kr,NA,NA,NA,NA,NA,NULL,NA,NA,NA
1,2,13,memory,kr,1,0,계,NA,NA,NULL,NA,NA,NA
1,2,13,memory,kr,2,1,뒤,NA,NA,NULL,NA,NA,NA
1,2,13,memory,kr,3,2,질,NA,NA,NULL,NA,NA,NA
1,2,13,memory,kr,4,3,여,NA,NA,NULL,NA,NA,NA
1,2,13,memory,kr,5,4,곳,NA,NA,NULL,NA,NA,NA
1,2,13,memory,kr,6,5,담,NA,NA,NULL,NA,NA,NA
1,2,13,updating,kr,1,1,뒤,독,NA,NULL,NA,NA,yes
1,2,13,updating,kr,2,4,곳,북,NA,NULL,NA,NA,yes
1,2,13,updating,kr,3,0,계,묻,NA,NULL,NA,NA,yes
1,2,13,retrieval,kr,1,3,여,여,"했,밟,러,또,르,마",곳,FALSE,6516.200000286102,no
1,2,13,retrieval,kr,2,4,곳,북,"했,밟,러,또,르,마",북,TRUE,6300.5,yes
1,2,13,retrieval,kr,3,5,담,담,"했,밟,러,또,르,마",계,FALSE,2812.5,no
1,2,13,retrieval,kr,4,1,뒤,독,"했,밟,러,또,르,마",묻,FALSE,5562.099999904633,yes
1,2,13,retrieval,kr,5,2,질,질,"했,밟,러,또,르,마",여,FALSE,5170.199999809265,no
1,2,13,retrieval,kr,6,0,계,묻,"했,밟,러,또,르,마",담,FALSE,4931.199999809265,yes
1,2,13,debrief,kr,NA,NA,NA,NA,NA,NULL,NA,NA,NA
1,2,14,memory,kr,1,0,찬,NA,NA,NULL,NA,NA,NA
1,2,14,memory,kr,2,1,았,NA,NA,NULL,NA,NA,NA
1,2,14,memory,kr,3,2,재,NA,NA,NULL,NA,NA,NA
1,2,14,memory,kr,4,3,든,NA,NA,NULL,NA,NA,NA
1,2,14,memory,kr,5,4,둘,NA,NA,NULL,NA,NA,NA
1,2,14,memory,kr,6,5,할,NA,NA,NULL,NA,NA,NA
1,2,14,updating,kr,1,1,았,전,NA,NULL,NA,NA,yes
1,2,14,updating,kr,2,0,찬,외,NA,NULL,NA,NA,yes
1,2,14,updating,kr,3,3,든,통,NA,NULL,NA,NA,yes
1,2,14,retrieval,kr,1,0,찬,외,"행,대,베,실,죄,교",찬,FALSE,3636.6000003814697,yes
1,2,14,retrieval,kr,2,2,재,재,"행,대,베,실,죄,교",둘,FALSE,4604,no
1,2,14,retrieval,kr,3,5,할,할,"행,대,베,실,죄,교",았,FALSE,5412.599999904633,no
1,2,14,retrieval,kr,4,4,둘,둘,"행,대,베,실,죄,교",실,FALSE,3281.300000190735,no
1,2,14,retrieval,kr,5,1,았,전,"행,대,베,실,죄,교",외,FALSE,1570.6999998092651,yes
1,2,14,retrieval,kr,6,3,든,통,"행,대,베,실,죄,교",통,TRUE,1176.1999998092651,yes
1,2,14,debrief,kr,NA,NA,NA,NA,NA,NULL,NA,NA,NA
1,2,15,memory,kr,1,0,난,NA,NA,NULL,NA,NA,NA
1,2,15,memory,kr,2,1,미,NA,NA,NULL,NA,NA,NA
1,2,15,memory,kr,3,2,너,NA,NA,NULL,NA,NA,NA
1,2,15,memory,kr,4,3,연,NA,NA,NULL,NA,NA,NA
1,2,15,memory,kr,5,4,컨,NA,NA,NULL,NA,NA,NA
1,2,15,memory,kr,6,5,승,NA,NA,NULL,NA,NA,NA
1,2,15,updating,kr,1,3,연,사,NA,NULL,NA,NA,yes
1,2,15,updating,kr,2,2,너,두,NA,NULL,NA,NA,yes
1,2,15,updating,kr,3,5,승,출,NA,NULL,NA,NA,yes
1,2,15,retrieval,kr,1,0,난,난,"설,났,화,비,로,이",난,TRUE,5841.39999961853,no
1,2,15,retrieval,kr,2,1,미,미,"설,났,화,비,로,이",연,FALSE,6091.199999809265,no
1,2,15,retrieval,kr,3,2,너,두,"설,났,화,비,로,이",승,FALSE,5656,yes
1,2,15,retrieval,kr,4,3,연,사,"설,났,화,비,로,이",두,FALSE,2262.2000002861023,yes
1,2,15,retrieval,kr,5,5,승,출,"설,났,화,비,로,이",출,TRUE,1731.4000000953674,yes
1,2,15,retrieval,kr,6,4,컨,컨,"설,났,화,비,로,이",이,FALSE,1360.1999998092651,no
1,2,15,debrief,kr,NA,NA,NA,NA,NA,NULL,NA,NA,NA
1,2,16,memory,kr,1,0,분,NA,NA,NULL,NA,NA,NA
1,2,16,memory,kr,2,1,배,NA,NA,NULL,NA,NA,NA
1,2,16,memory,kr,3,2,무,NA,NA,NULL,NA,NA,NA
1,2,16,memory,kr,4,3,축,NA,NA,NULL,NA,NA,NA
1,2,16,memory,kr,5,4,원,NA,NA,NULL,NA,NA,NA
1,2,16,memory,kr,6,5,범,NA,NA,NULL,NA,NA,NA
1,2,16,updating,kr,1,0,분,까,NA,NULL,NA,NA,yes
1,2,16,updating,kr,2,1,배,준,NA,NULL,NA,NA,yes
1,2,16,updating,kr,3,5,범,폐,NA,NULL,NA,NA,yes
1,2,16,retrieval,kr,1,5,범,폐,"존,데,방,브,저,활",폐,TRUE,3643.199999809265,yes
1,2,16,retrieval,kr,2,4,원,원,"존,데,방,브,저,활",원,TRUE,3739.0999999046326,no
1,2,16,retrieval,kr,3,2,무,무,"존,데,방,브,저,활",준,FALSE,3203.5999999046326,no
1,2,16,retrieval,kr,4,3,축,축,"존,데,방,브,저,활",데,FALSE,2468.800000190735,no
1,2,16,retrieval,kr,5,0,분,까,"존,데,방,브,저,활",까,TRUE,1444.3000001907349,yes
1,2,16,retrieval,kr,6,1,배,준,"존,데,방,브,저,활",분,FALSE,1615.0999999046326,yes
1,2,16,debrief,kr,NA,NA,NA,NA,NA,NULL,NA,NA,NA
1,2,17,memory,kr,1,0,였,NA,NA,NULL,NA,NA,NA
1,2,17,memory,kr,2,1,측,NA,NA,NULL,NA,NA,NA
1,2,17,memory,kr,3,2,직,NA,NA,NULL,NA,NA,NA
1,2,17,memory,kr,4,3,몸,NA,NA,NULL,NA,NA,NA
1,2,17,memory,kr,5,4,물,NA,NA,NULL,NA,NA,NA
1,2,17,memory,kr,6,5,고,NA,NA,NULL,NA,NA,NA
1,2,17,updating,kr,1,4,물,첫,NA,NULL,NA,NA,yes
1,2,17,updating,kr,2,2,직,뿌,NA,NULL,NA,NA,yes
1,2,17,updating,kr,3,5,고,체,NA,NULL,NA,NA,yes
1,2,17,retrieval,kr,1,2,직,뿌,"온,바,채,아,다,됐",뿌,TRUE,3435.699999809265,yes
1,2,17,retrieval,kr,2,4,물,첫,"온,바,채,아,다,됐",측,FALSE,8821.5,yes
1,2,17,retrieval,kr,3,5,고,체,"온,바,채,아,다,됐",첫,FALSE,9171.099999904633,yes
1,2,17,retrieval,kr,4,3,몸,몸,"온,바,채,아,다,됐",몸,TRUE,1381.4000000953674,no
1,2,17,retrieval,kr,5,0,였,였,"온,바,채,아,다,됐",바,FALSE,4348.900000095367,no
1,2,17,retrieval,kr,6,1,측,측,"온,바,채,아,다,됐",됐,FALSE,2669.6000003814697,no
1,2,17,debrief,kr,NA,NA,NA,NA,NA,NULL,NA,NA,NA
1,2,18,memory,kr,1,0,집,NA,NA,NULL,NA,NA,NA
1,2,18,memory,kr,2,1,조,NA,NA,NULL,NA,NA,NA
1,2,18,memory,kr,3,2,잡,NA,NA,NULL,NA,NA,NA
1,2,18,memory,kr,4,3,삼,NA,NA,NULL,NA,NA,NA
1,2,18,memory,kr,5,4,속,NA,NA,NULL,NA,NA,NA
1,2,18,memory,kr,6,5,에,NA,NA,NULL,NA,NA,NA
1,2,18,updating,kr,1,2,잡,워,NA,NULL,NA,NA,yes
1,2,18,updating,kr,2,3,삼,향,NA,NULL,NA,NA,yes
1,2,18,updating,kr,3,4,속,지,NA,NULL,NA,NA,yes
1,2,18,retrieval,kr,1,0,집,집,"평,역,예,혹,떡,처",조,FALSE,3134,no
1,2,18,retrieval,kr,2,1,조,조,"평,역,예,혹,떡,처",삼,FALSE,4596.599999904633,no
1,2,18,retrieval,kr,3,5,에,에,"평,역,예,혹,떡,처",잡,FALSE,5419.099999904633,no
1,2,18,retrieval,kr,4,2,잡,워,"평,역,예,혹,떡,처",향,FALSE,3644.800000190735,yes
1,2,18,retrieval,kr,5,3,삼,향,"평,역,예,혹,떡,처",워,FALSE,2557.9000000953674,yes
1,2,18,retrieval,kr,6,4,속,지,"평,역,예,혹,떡,처",역,FALSE,2021.0999999046326,yes
1,2,18,debrief,kr,NA,NA,NA,NA,NA,NULL,NA,NA,NA
1,2,19,memory,kr,1,0,리,NA,NA,NULL,NA,NA,NA
1,2,19,memory,kr,2,1,냉,NA,NA,NULL,NA,NA,NA
1,2,19,memory,kr,3,2,소,NA,NA,NULL,NA,NA,NA
1,2,19,memory,kr,4,3,더,NA,NA,NULL,NA,NA,NA
1,2,19,memory,kr,5,4,용,NA,NA,NULL,NA,NA,NA
1,2,19,memory,kr,6,5,탈,NA,NA,NULL,NA,NA,NA
1,2,19,updating,kr,1,2,소,버,NA,NULL,NA,NA,yes
1,2,19,updating,kr,2,3,더,않,NA,NULL,NA,NA,yes
1,2,19,updating,kr,3,5,탈,뜻,NA,NULL,NA,NA,yes
1,2,19,retrieval,kr,1,4,용,용,"토,렵,져,암,형,알",용,TRUE,2906.199999809265,no
1,2,19,retrieval,kr,2,0,리,리,"토,렵,져,암,형,알",암,FALSE,7323.5,no
1,2,19,retrieval,kr,3,2,소,버,"토,렵,져,암,형,알",않,FALSE,4958.599999904633,yes
1,2,19,retrieval,kr,4,5,탈,뜻,"토,렵,져,암,형,알",탈,FALSE,4049.300000190735,yes
1,2,19,retrieval,kr,5,3,더,않,"토,렵,져,암,형,알",버,FALSE,2811.9000000953674,yes
1,2,19,retrieval,kr,6,1,냉,냉,"토,렵,져,암,형,알",더,FALSE,2718.2000002861023,no
1,2,19,debrief,kr,NA,NA,NA,NA,NA,NULL,NA,NA,NA
1,2,20,memory,kr,1,0,웠,NA,NA,NULL,NA,NA,NA
1,2,20,memory,kr,2,1,책,NA,NA,NULL,NA,NA,NA
1,2,20,memory,kr,3,2,움,NA,NA,NULL,NA,NA,NA
1,2,20,memory,kr,4,3,족,NA,NA,NULL,NA,NA,NA
1,2,20,memory,kr,5,4,안,NA,NA,NULL,NA,NA,NA
1,2,20,memory,kr,6,5,오,NA,NA,NULL,NA,NA,NA
1,2,20,updating,kr,1,2,움,띤,NA,NULL,NA,NA,yes
1,2,20,updating,kr,2,5,오,운,NA,NULL,NA,NA,yes
1,2,20,updating,kr,3,0,웠,절,NA,NULL,NA,NA,yes
1,2,20,retrieval,kr,1,5,오,운,"히,정,후,특,려,유",운,TRUE,5837.099999904633,yes
1,2,20,retrieval,kr,2,2,움,띤,"히,정,후,특,려,유",띤,TRUE,5054.799999713898,yes
1,2,20,retrieval,kr,3,1,책,책,"히,정,후,특,려,유",족,FALSE,4574.400000095367,no
1,2,20,retrieval,kr,4,3,족,족,"히,정,후,특,려,유",히,FALSE,7646.400000095367,no
1,2,20,retrieval,kr,5,0,웠,절,"히,정,후,특,려,유",띤,FALSE,2626.5,yes
1,2,20,retrieval,kr,6,4,안,안,"히,정,후,특,려,유",절,FALSE,1684,no
1,2,20,debrief,kr,NA,NA,NA,NA,NA,NULL,NA,NA,NA
6,1,1,memory,kr,1,0,치,NA,NA,NULL,NA,NA,NA
6,1,1,memory,kr,2,1,각,NA,NA,NULL,NA,NA,NA
6,1,1,memory,kr,3,2,렇,NA,NA,NULL,NA,NA,NA
6,1,1,memory,kr,4,3,컫,NA,NA,NULL,NA,NA,NA
6,1,1,memory,kr,5,4,옮,NA,NA,NULL,NA,NA,NA
6,1,1,memory,kr,6,5,에,NA,NA,NULL,NA,NA,NA
6,1,1,updating,kr,1,4,옮,능,NA,NULL,NA,NA,yes
6,1,1,updating,kr,2,1,각,없,NA,NULL,NA,NA,yes
6,1,1,updating,kr,3,0,치,예,NA,NULL,NA,NA,yes
6,1,1,retrieval,kr,1,0,치,예,"냉,물,했,들,판,출",예,TRUE,2704.8000000715256,yes
6,1,1,retrieval,kr,2,4,옮,능,"냉,물,했,들,판,출",능,TRUE,6519.700000047684,yes
6,1,1,retrieval,kr,3,5,에,에,"냉,물,했,들,판,출",없,FALSE,4386,no
6,1,1,retrieval,kr,4,2,렇,렇,"냉,물,했,들,판,출",렇,TRUE,14494.799999952316,no
6,1,1,retrieval,kr,5,1,각,없,"냉,물,했,들,판,출",출,FALSE,5738.400000095367,yes
6,1,1,retrieval,kr,6,3,컫,컫,"냉,물,했,들,판,출",컫,TRUE,4540.800000071526,no
6,1,1,debrief,kr,NA,NA,NA,NA,NA,NULL,NA,NA,NA
6,1,2,memory,kr,1,0,률,NA,NA,NULL,NA,NA,NA
6,1,2,memory,kr,2,1,넘,NA,NA,NULL,NA,NA,NA
6,1,2,memory,kr,3,2,겠,NA,NA,NULL,NA,NA,NA
6,1,2,memory,kr,4,3,로,NA,NA,NULL,NA,NA,NA
6,1,2,memory,kr,5,4,역,NA,NA,NULL,NA,NA,NA
6,1,2,memory,kr,6,5,모,NA,NA,NULL,NA,NA,NA
6,1,2,updating,kr,1,3,로,닌,NA,NULL,NA,NA,yes
6,1,2,updating,kr,2,2,겠,규,NA,NULL,NA,NA,yes
6,1,2,updating,kr,3,1,넘,혔,NA,NULL,NA,NA,yes
6,1,2,retrieval,kr,1,3,로,닌,"제,드,본,사,져,떠",닌,TRUE,2738,yes
6,1,2,retrieval,kr,2,0,률,률,"제,드,본,사,져,떠",모,FALSE,11303.600000023842,no
6,1,2,retrieval,kr,3,2,겠,규,"제,드,본,사,져,떠",드,FALSE,9161.799999952316,yes
6,1,2,retrieval,kr,4,5,모,모,"제,드,본,사,져,떠",역,FALSE,6327,no
6,1,2,retrieval,kr,5,1,넘,혔,"제,드,본,사,져,떠",혔,TRUE,4613.399999976158,yes
6,1,2,retrieval,kr,6,4,역,역,"제,드,본,사,져,떠",률,FALSE,4014.600000023842,no
6,1,2,debrief,kr,NA,NA,NA,NA,NA,NULL,NA,NA,NA
6,1,3,memory,kr,1,0,맞,NA,NA,NULL,NA,NA,NA
6,1,3,memory,kr,2,1,바,NA,NA,NULL,NA,NA,NA
6,1,3,memory,kr,3,2,루,NA,NA,NULL,NA,NA,NA
6,1,3,memory,kr,4,3,은,NA,NA,NULL,NA,NA,NA
6,1,3,memory,kr,5,4,말,NA,NA,NULL,NA,NA,NA
6,1,3,memory,kr,6,5,포,NA,NA,NULL,NA,NA,NA
6,1,3,updating,kr,1,2,루,별,NA,NULL,NA,NA,yes
6,1,3,updating,kr,2,5,포,데,NA,NULL,NA,NA,yes
6,1,3,updating,kr,3,0,맞,든,NA,NULL,NA,NA,yes
6,1,3,retrieval,kr,1,0,맞,든,"칭,워,용,정,극,추",든,TRUE,1515,yes
6,1,3,retrieval,kr,2,3,은,은,"칭,워,용,정,극,추",은,TRUE,10762.5,no
6,1,3,retrieval,kr,3,4,말,말,"칭,워,용,정,극,추",은,FALSE,3908.100000023842,no
6,1,3,retrieval,kr,4,2,루,별,"칭,워,용,정,극,추",루,FALSE,4718.700000047684,yes
6,1,3,retrieval,kr,5,1,바,바,"칭,워,용,정,극,추",NULL,FALSE,NA,no
6,1,3,retrieval,kr,6,5,포,데,"칭,워,용,정,극,추",말,FALSE,284.2999999523163,yes
6,1,3,debrief,kr,NA,NA,NA,NA,NA,NULL,NA,NA,NA
6,1,4,memory,kr,1,0,묵,NA,NA,NULL,NA,NA,NA
6,1,4,memory,kr,2,1,병,NA,NA,NULL,NA,NA,NA
6,1,4,memory,kr,3,2,려,NA,NA,NULL,NA,NA,NA
6,1,4,memory,kr,4,3,법,NA,NA,NULL,NA,NA,NA
6,1,4,memory,kr,5,4,잡,NA,NA,NULL,NA,NA,NA
6,1,4,memory,kr,6,5,징,NA,NA,NULL,NA,NA,NA
6,1,4,updating,kr,1,3,법,완,NA,NULL,NA,NA,yes
6,1,4,updating,kr,2,4,잡,차,NA,NULL,NA,NA,yes
6,1,4,updating,kr,3,5,징,합,NA,NULL,NA,NA,yes
6,1,4,retrieval,kr,1,3,법,완,"떨,수,파,맑,금,픔",합,FALSE,2559.7999999523163,yes
6,1,4,retrieval,kr,2,1,병,병,"떨,수,파,맑,금,픔",징,FALSE,6099.700000047684,no
6,1,4,retrieval,kr,3,2,려,려,"떨,수,파,맑,금,픔",려,TRUE,3883.6999999284744,no
6,1,4,retrieval,kr,4,5,징,합,"떨,수,파,맑,금,픔",완,FALSE,9894.300000071526,yes
6,1,4,retrieval,kr,5,0,묵,묵,"떨,수,파,맑,금,픔",금,FALSE,3843.600000023842,no
6,1,4,retrieval,kr,6,4,잡,차,"떨,수,파,맑,금,픔",법,FALSE,1843.3999999761581,yes
6,1,4,debrief,kr,NA,NA,NA,NA,NA,NULL,NA,NA,NA
6,1,5,memory,kr,1,0,연,NA,NA,NULL,NA,NA,NA
6,1,5,memory,kr,2,1,독,NA,NA,NULL,NA,NA,NA
6,1,5,memory,kr,3,2,내,NA,NA,NULL,NA,NA,NA
6,1,5,memory,kr,4,3,듯,NA,NA,NULL,NA,NA,NA
6,1,5,memory,kr,5,4,중,NA,NA,NULL,NA,NA,NA
6,1,5,memory,kr,6,5,명,NA,NA,NULL,NA,NA,NA
6,1,5,updating,kr,1,3,듯,율,NA,NULL,NA,NA,yes
6,1,5,updating,kr,2,0,연,콤,NA,NULL,NA,NA,yes
6,1,5,updating,kr,3,4,중,지,NA,NULL,NA,NA,yes
6,1,5,retrieval,kr,1,3,듯,율,"쓸,등,풍,높,느,힘",연,FALSE,4188,yes
6,1,5,retrieval,kr,2,4,중,지,"쓸,등,풍,높,느,힘",지,TRUE,1045.6000000238419,yes
6,1,5,retrieval,kr,3,2,내,내,"쓸,등,풍,높,느,힘",내,TRUE,5352.300000071526,no
6,1,5,retrieval,kr,4,1,독,독,"쓸,등,풍,높,느,힘",독,TRUE,2132.6999999284744,no
6,1,5,retrieval,kr,5,5,명,명,"쓸,등,풍,높,느,힘",콤,FALSE,4516,no
6,1,5,retrieval,kr,6,0,연,콤,"쓸,등,풍,높,느,힘",율,FALSE,10369.5,yes
6,1,5,debrief,kr,NA,NA,NA,NA,NA,NULL,NA,NA,NA
6,1,6,memory,kr,1,0,야,NA,NA,NULL,NA,NA,NA
6,1,6,memory,kr,2,1,씨,NA,NA,NULL,NA,NA,NA
6,1,6,memory,kr,3,2,응,NA,NA,NULL,NA,NA,NA
6,1,6,memory,kr,4,3,축,NA,NA,NULL,NA,NA,NA
6,1,6,memory,kr,5,4,습,NA,NA,NULL,NA,NA,NA
6,1,6,memory,kr,6,5,맡,NA,NA,NULL,NA,NA,NA
6,1,6,updating,kr,1,0,야,러,NA,NULL,NA,NA,yes
6,1,6,updating,kr,2,4,습,화,NA,NULL,NA,NA,yes
6,1,6,updating,kr,3,1,씨,섰,NA,NULL,NA,NA,yes
6,1,6,retrieval,kr,1,5,맡,맡,"게,됐,움,너,태,좋",맡,TRUE,9864.600000023842,no
6,1,6,retrieval,kr,2,3,축,축,"게,됐,움,너,태,좋",섰,FALSE,11944,no
6,1,6,retrieval,kr,3,1,씨,섰,"게,됐,움,너,태,좋",화,FALSE,6388.5,yes
6,1,6,retrieval,kr,4,0,야,러,"게,됐,움,너,태,좋",러,TRUE,3220.600000023842,yes
6,1,6,retrieval,kr,5,2,응,응,"게,됐,움,너,태,좋",응,TRUE,5502.899999976158,no
6,1,6,retrieval,kr,6,4,습,화,"게,됐,움,너,태,좋",너,FALSE,4403.700000047684,yes
6,1,6,debrief,kr,NA,NA,NA,NA,NA,NULL,NA,NA,NA
6,1,7,memory,kr,1,0,어,NA,NA,NULL,NA,NA,NA
6,1,7,memory,kr,2,1,빅,NA,NA,NULL,NA,NA,NA
6,1,7,memory,kr,3,2,공,NA,NA,NULL,NA,NA,NA
6,1,7,memory,kr,4,3,막,NA,NA,NULL,NA,NA,NA
6,1,7,memory,kr,5,4,라,NA,NA,NULL,NA,NA,NA
6,1,7,memory,kr,6,5,았,NA,NA,NULL,NA,NA,NA
6,1,7,updating,kr,1,2,공,환,NA,NULL,NA,NA,yes
6,1,7,updating,kr,2,3,막,외,NA,NULL,NA,NA,yes
6,1,7,updating,kr,3,5,았,도,NA,NULL,NA,NA,yes
6,1,7,retrieval,kr,1,0,어,어,"즐,개,받,존,탄,두",외,FALSE,4488.5,no
6,1,7,retrieval,kr,2,5,았,도,"즐,개,받,존,탄,두",두,FALSE,4527.5,yes
6,1,7,retrieval,kr,3,3,막,외,"즐,개,받,존,탄,두",받,FALSE,3255.100000023842,yes
6,1,7,retrieval,kr,4,2,공,환,"즐,개,받,존,탄,두",막,FALSE,10381.200000047684,yes
6,1,7,retrieval,kr,5,1,빅,빅,"즐,개,받,존,탄,두",빅,TRUE,1496.2999999523163,no
6,1,7,retrieval,kr,6,4,라,라,"즐,개,받,존,탄,두",즐,FALSE,1705,no
6,1,7,debrief,kr,NA,NA,NA,NA,NA,NULL,NA,NA,NA
6,1,8,memory,kr,1,0,못,NA,NA,NULL,NA,NA,NA
6,1,8,memory,kr,2,1,큼,NA,NA,NULL,NA,NA,NA
6,1,8,memory,kr,3,2,처,NA,NA,NULL,NA,NA,NA
6,1,8,memory,kr,4,3,몸,NA,NA,NULL,NA,NA,NA
6,1,8,memory,kr,5,4,피,NA,NA,NULL,NA,NA,NA
6,1,8,memory,kr,6,5,버,NA,NA,NULL,NA,NA,NA
6,1,8,updating,kr,1,1,큼,죄,NA,NULL,NA,NA,yes
6,1,8,updating,kr,2,0,못,전,NA,NULL,NA,NA,yes
6,1,8,updating,kr,3,3,몸,면,NA,NULL,NA,NA,yes
6,1,8,retrieval,kr,1,2,처,처,"택,음,양,곳,형,업",음,FALSE,14321.700000047684,no
6,1,8,retrieval,kr,2,0,못,전,"택,음,양,곳,형,업",못,FALSE,12916,yes
6,1,8,retrieval,kr,3,5,버,버,"택,음,양,곳,형,업",죄,FALSE,2747.5,no
6,1,8,retrieval,kr,4,4,피,피,"택,음,양,곳,형,업",처,FALSE,969.2000000476837,no
6,1,8,retrieval,kr,5,1,큼,죄,"택,음,양,곳,형,업",못,FALSE,9200,yes
6,1,8,retrieval,kr,6,3,몸,면,"택,음,양,곳,형,업",전,FALSE,2520.6999999284744,yes
6,1,8,debrief,kr,NA,NA,NA,NA,NA,NULL,NA,NA,NA
6,1,9,memory,kr,1,0,장,NA,NA,NULL,NA,NA,NA
6,1,9,memory,kr,2,1,가,NA,NA,NULL,NA,NA,NA
6,1,9,memory,kr,3,2,한,NA,NA,NULL,NA,NA,NA
6,1,9,memory,kr,4,3,변,NA,NA,NULL,NA,NA,NA
6,1,9,memory,kr,5,4,박,NA,NA,NULL,NA,NA,NA
6,1,9,memory,kr,6,5,국,NA,NA,NULL,NA,NA,NA
6,1,9,updating,kr,1,2,한,월,NA,NULL,NA,NA,yes
6,1,9,updating,kr,2,3,변,떡,NA,NULL,NA,NA,yes
6,1,9,updating,kr,3,0,장,북,NA,NULL,NA,NA,yes
6,1,9,retrieval,kr,1,1,가,가,"실,런,났,리,향,렌",북,FALSE,5003.600000023842,no
6,1,9,retrieval,kr,2,5,국,국,"실,런,났,리,향,렌",리,FALSE,5355.899999976158,no
6,1,9,retrieval,kr,3,4,박,박,"실,런,났,리,향,렌",박,TRUE,1235.8000000715256,no
6,1,9,retrieval,kr,4,2,한,월,"실,런,났,리,향,렌",렌,FALSE,1104.6999999284744,yes
6,1,9,retrieval,kr,5,0,장,북,"실,런,났,리,향,렌",향,FALSE,1186.1999999284744,yes
6,1,9,retrieval,kr,6,3,변,떡,"실,런,났,리,향,렌",가,FALSE,1124.6000000238419,yes
6,1,9,debrief,kr,NA,NA,NA,NA,NA,NULL,NA,NA,NA
6,1,10,memory,kr,1,0,밟,NA,NA,NULL,NA,NA,NA
6,1,10,memory,kr,2,1,하,NA,NA,NULL,NA,NA,NA
6,1,10,memory,kr,3,2,꾸,NA,NA,NULL,NA,NA,NA
6,1,10,memory,kr,4,3,집,NA,NA,NULL,NA,NA,NA
6,1,10,memory,kr,5,4,혐,NA,NA,NULL,NA,NA,NA
6,1,10,memory,kr,6,5,할,NA,NA,NULL,NA,NA,NA
6,1,10,updating,kr,1,1,하,아,NA,NULL,NA,NA,yes
6,1,10,updating,kr,2,3,집,뜻,NA,NULL,NA,NA,yes
6,1,10,updating,kr,3,2,꾸,임,NA,NULL,NA,NA,yes
6,1,10,retrieval,kr,1,4,혐,혐,"채,럼,격,조,그,급",채,FALSE,6626.200000047684,no
6,1,10,retrieval,kr,2,3,집,뜻,"채,럼,격,조,그,급",하,FALSE,2875.399999976158,yes
6,1,10,retrieval,kr,3,5,할,할,"채,럼,격,조,그,급",할,TRUE,4953.5,no
6,1,10,retrieval,kr,4,1,하,아,"채,럼,격,조,그,급",하,FALSE,4080.600000023842,yes
6,1,10,retrieval,kr,5,0,밟,밟,"채,럼,격,조,그,급",밟,TRUE,945.7999999523163,no
6,1,10,retrieval,kr,6,2,꾸,임,"채,럼,격,조,그,급",럼,FALSE,5643.700000047684,yes
6,1,10,debrief,kr,NA,NA,NA,NA,NA,NULL,NA,NA,NA
6,1,11,memory,kr,1,0,뿜,NA,NA,NULL,NA,NA,NA
6,1,11,memory,kr,2,1,범,NA,NA,NULL,NA,NA,NA
6,1,11,memory,kr,3,2,승,NA,NA,NULL,NA,NA,NA
6,1,11,memory,kr,4,3,적,NA,NA,NULL,NA,NA,NA
6,1,11,memory,kr,5,4,거,NA,NA,NULL,NA,NA,NA
6,1,11,memory,kr,6,5,또,NA,NA,NULL,NA,NA,NA
6,1,11,updating,kr,1,2,승,긴,NA,NULL,NA,NA,yes
6,1,11,updating,kr,2,4,거,숙,NA,NULL,NA,NA,yes
6,1,11,updating,kr,3,0,뿜,찰,NA,NULL,NA,NA,yes
6,1,11,retrieval,kr,1,5,또,또,"당,자,였,원,열,육",당,FALSE,12384.600000023842,no
6,1,11,retrieval,kr,2,2,승,긴,"당,자,였,원,열,육",자,FALSE,8212.399999976158,yes
6,1,11,retrieval,kr,3,3,적,적,"당,자,였,원,열,육",였,FALSE,2853.600000023842,no
6,1,11,retrieval,kr,4,1,범,범,"당,자,였,원,열,육",열,FALSE,7662.899999976158,no
6,1,11,retrieval,kr,5,4,거,숙,"당,자,였,원,열,육",거,FALSE,7850.299999952316,yes
6,1,11,retrieval,kr,6,0,뿜,찰,"당,자,였,원,열,육",뿜,FALSE,3454.6999999284744,yes
6,1,11,debrief,kr,NA,NA,NA,NA,NA,NULL,NA,NA,NA
6,1,12,memory,kr,1,0,날,NA,NA,NULL,NA,NA,NA
6,1,12,memory,kr,2,1,낙,NA,NA,NULL,NA,NA,NA
6,1,12,memory,kr,3,2,방,NA,NA,NULL,NA,NA,NA
6,1,12,memory,kr,4,3,따,NA,NA,NULL,NA,NA,NA
6,1,12,memory,kr,5,4,익,NA,NA,NULL,NA,NA,NA
6,1,12,memory,kr,6,5,천,NA,NA,NULL,NA,NA,NA
6,1,12,updating,kr,1,0,날,며,NA,NULL,NA,NA,yes
6,1,12,updating,kr,2,2,방,첫,NA,NULL,NA,NA,yes
6,1,12,updating,kr,3,1,낙,엔,NA,NULL,NA,NA,yes
6,1,12,retrieval,kr,1,4,익,익,"벌,강,람,잇,최,학",강,FALSE,10550.700000047684,no
6,1,12,retrieval,kr,2,3,따,따,"벌,강,람,잇,최,학",학,FALSE,1765.1000000238419,no
6,1,12,retrieval,kr,3,1,낙,엔,"벌,강,람,잇,최,학",익,FALSE,4161.399999976158,yes
6,1,12,retrieval,kr,4,0,날,며,"벌,강,람,잇,최,학",학,FALSE,1787.6000000238419,yes
6,1,12,retrieval,kr,5,2,방,첫,"벌,강,람,잇,최,학",날,FALSE,3493,yes
6,1,12,retrieval,kr,6,5,천,천,"벌,강,람,잇,최,학",강,FALSE,2632.899999976158,no
6,1,12,debrief,kr,NA,NA,NA,NA,NA,NULL,NA,NA,NA
6,1,13,memory,kr,1,0,둘,NA,NA,NULL,NA,NA,NA
6,1,13,memory,kr,2,1,것,NA,NA,NULL,NA,NA,NA
6,1,13,memory,kr,3,2,띤,NA,NA,NULL,NA,NA,NA
6,1,13,memory,kr,4,3,브,NA,NA,NULL,NA,NA,NA
6,1,13,memory,kr,5,4,타,NA,NA,NULL,NA,NA,NA
6,1,13,memory,kr,6,5,효,NA,NA,NULL,NA,NA,NA
6,1,13,updating,kr,1,1,것,유,NA,NULL,NA,NA,yes
6,1,13,updating,kr,2,4,타,세,NA,NULL,NA,NA,yes
6,1,13,updating,kr,3,2,띤,영,NA,NULL,NA,NA,yes
6,1,13,retrieval,kr,1,0,둘,둘,"대,분,경,석,알,인",석,FALSE,8500,no
6,1,13,retrieval,kr,2,4,타,세,"대,분,경,석,알,인",알,FALSE,3723,yes
6,1,13,retrieval,kr,3,1,것,유,"대,분,경,석,알,인",인,FALSE,3248.6999999284744,yes
6,1,13,retrieval,kr,4,2,띤,영,"대,분,경,석,알,인",세,FALSE,3401.899999976158,yes
6,1,13,retrieval,kr,5,5,효,효,"대,분,경,석,알,인",유,FALSE,1306.3999999761581,no
6,1,13,retrieval,kr,6,3,브,브,"대,분,경,석,알,인",효,FALSE,1670.6000000238419,no
6,1,13,debrief,kr,NA,NA,NA,NA,NA,NULL,NA,NA,NA
6,1,14,memory,kr,1,0,줄,NA,NA,NULL,NA,NA,NA
6,1,14,memory,kr,2,1,는,NA,NA,NULL,NA,NA,NA
6,1,14,memory,kr,3,2,혈,NA,NA,NULL,NA,NA,NA
6,1,14,memory,kr,4,3,직,NA,NA,NULL,NA,NA,NA
6,1,14,memory,kr,5,4,보,NA,NA,NULL,NA,NA,NA
6,1,14,memory,kr,6,5,단,NA,NA,NULL,NA,NA,NA
6,1,14,updating,kr,1,0,줄,족,NA,NULL,NA,NA,yes
6,1,14,updating,kr,2,1,는,밝,NA,NULL,NA,NA,yes
6,1,14,updating,kr,3,2,혈,만,NA,NULL,NA,NA,yes
6,1,14,retrieval,kr,1,3,직,직,"뿌,선,뜨,흉,료,폐",혈,FALSE,7764.199999928474,no
6,1,14,retrieval,kr,2,0,줄,족,"뿌,선,뜨,흉,료,폐",직,FALSE,1626.5,yes
6,1,14,retrieval,kr,3,4,보,보,"뿌,선,뜨,흉,료,폐",밝,FALSE,2150.1999999284744,no
6,1,14,retrieval,kr,4,2,혈,만,"뿌,선,뜨,흉,료,폐",만,TRUE,1051.2000000476837,yes
6,1,14,retrieval,kr,5,5,단,단,"뿌,선,뜨,흉,료,폐",만,FALSE,273.3000000715256,no
6,1,14,retrieval,kr,6,1,는,밝,"뿌,선,뜨,흉,료,폐",밝,TRUE,4361.699999928474,yes
6,1,14,debrief,kr,NA,NA,NA,NA,NA,NULL,NA,NA,NA
6,1,15,memory,kr,1,0,참,NA,NA,NULL,NA,NA,NA
6,1,15,memory,kr,2,1,휴,NA,NA,NULL,NA,NA,NA
6,1,15,memory,kr,3,2,무,NA,NA,NULL,NA,NA,NA
6,1,15,memory,kr,4,3,다,NA,NA,NULL,NA,NA,NA
6,1,15,memory,kr,5,4,략,NA,NA,NULL,NA,NA,NA
6,1,15,memory,kr,6,5,년,NA,NA,NULL,NA,NA,NA
6,1,15,updating,kr,1,3,다,랑,NA,NULL,NA,NA,yes
6,1,15,updating,kr,2,4,략,상,NA,NULL,NA,NA,yes
6,1,15,updating,kr,3,0,참,청,NA,NULL,NA,NA,yes
6,1,15,retrieval,kr,1,5,년,년,"행,해,갈,온,께,묻",청,FALSE,2502.1999999284744,no
6,1,15,retrieval,kr,2,4,략,상,"행,해,갈,온,께,묻",랑,FALSE,5324.300000071526,yes
6,1,15,retrieval,kr,3,1,휴,휴,"행,해,갈,온,께,묻",묻,FALSE,3771.7000000476837,no
6,1,15,retrieval,kr,4,0,참,청,"행,해,갈,온,께,묻",청,TRUE,6373.899999976158,yes
6,1,15,retrieval,kr,5,2,무,무,"행,해,갈,온,께,묻",묻,FALSE,4041.7000000476837,no
6,1,15,retrieval,kr,6,3,다,랑,"행,해,갈,온,께,묻",참,FALSE,8665.100000023842,yes
6,1,15,debrief,kr,NA,NA,NA,NA,NA,NULL,NA,NA,NA
6,1,16,memory,kr,1,0,설,NA,NA,NULL,NA,NA,NA
6,1,16,memory,kr,2,1,궈,NA,NA,NULL,NA,NA,NA
6,1,16,memory,kr,3,2,력,NA,NA,NULL,NA,NA,NA
6,1,16,memory,kr,4,3,권,NA,NA,NULL,NA,NA,NA
6,1,16,memory,kr,5,4,럽,NA,NA,NULL,NA,NA,NA
6,1,16,memory,kr,6,5,같,NA,NA,NULL,NA,NA,NA
6,1,16,updating,kr,1,3,권,르,NA,NULL,NA,NA,yes
6,1,16,updating,kr,2,0,설,칙,NA,NULL,NA,NA,yes
6,1,16,updating,kr,3,5,같,된,NA,NULL,NA,NA,yes
6,1,16,retrieval,kr,1,1,궈,궈,"계,고,여,님,와,빛",력,FALSE,7838.899999976158,no
6,1,16,retrieval,kr,2,4,럽,럽,"계,고,여,님,와,빛",럽,TRUE,5115.799999952316,no
6,1,16,retrieval,kr,3,5,같,된,"계,고,여,님,와,빛",님,FALSE,5937.600000023842,yes
6,1,16,retrieval,kr,4,0,설,칙,"계,고,여,님,와,빛",같,FALSE,8433.799999952316,yes
6,1,16,retrieval,kr,5,2,력,력,"계,고,여,님,와,빛",럽,FALSE,7333,no
6,1,16,retrieval,kr,6,3,권,르,"계,고,여,님,와,빛",고,FALSE,3869.4000000953674,yes
6,1,16,debrief,kr,NA,NA,NA,NA,NA,NULL,NA,NA,NA
6,1,17,memory,kr,1,0,점,NA,NA,NULL,NA,NA,NA
6,1,17,memory,kr,2,1,까,NA,NA,NULL,NA,NA,NA
6,1,17,memory,kr,3,2,으,NA,NA,NULL,NA,NA,NA
6,1,17,memory,kr,4,3,쇄,NA,NA,NULL,NA,NA,NA
6,1,17,memory,kr,5,4,란,NA,NA,NULL,NA,NA,NA
6,1,17,memory,kr,6,5,소,NA,NA,NULL,NA,NA,NA
6,1,17,updating,kr,1,1,까,례,NA,NULL,NA,NA,yes
6,1,17,updating,kr,2,2,으,속,NA,NULL,NA,NA,yes
6,1,17,updating,kr,3,4,란,위,NA,NULL,NA,NA,yes
6,1,17,retrieval,kr,1,2,으,속,"과,더,운,엄,난,일",속,TRUE,9183.199999928474,yes
6,1,17,retrieval,kr,2,3,쇄,쇄,"과,더,운,엄,난,일",운,FALSE,3365.5,no
6,1,17,retrieval,kr,3,5,소,소,"과,더,운,엄,난,일",례,FALSE,6956.700000047684,no
6,1,17,retrieval,kr,4,4,란,위,"과,더,운,엄,난,일",난,FALSE,1576,yes
6,1,17,retrieval,kr,5,0,점,점,"과,더,운,엄,난,일",점,TRUE,7817.899999976158,no
6,1,17,retrieval,kr,6,1,까,례,"과,더,운,엄,난,일",란,FALSE,6568.399999976158,yes
6,1,17,debrief,kr,NA,NA,NA,NA,NA,NULL,NA,NA,NA
6,1,18,memory,kr,1,0,간,NA,NA,NULL,NA,NA,NA
6,1,18,memory,kr,2,1,심,NA,NA,NULL,NA,NA,NA
6,1,18,memory,kr,3,2,민,NA,NA,NULL,NA,NA,NA
6,1,18,memory,kr,4,3,평,NA,NA,NULL,NA,NA,NA
6,1,18,memory,kr,5,4,재,NA,NA,NULL,NA,NA,NA
6,1,18,memory,kr,6,5,성,NA,NA,NULL,NA,NA,NA
6,1,18,updating,kr,1,5,성,덜,NA,NULL,NA,NA,yes
6,1,18,updating,kr,2,4,재,낼,NA,NULL,NA,NA,yes
6,1,18,updating,kr,3,2,민,쉽,NA,NULL,NA,NA,yes
6,1,18,retrieval,kr,1,0,간,간,"삼,저,산,흔,살,동",산,FALSE,7277.299999952316,no
6,1,18,retrieval,kr,2,1,심,심,"삼,저,산,흔,살,동",덜,FALSE,15947.199999928474,no
6,1,18,retrieval,kr,3,2,민,쉽,"삼,저,산,흔,살,동",민,FALSE,4229.100000023842,yes
6,1,18,retrieval,kr,4,5,성,덜,"삼,저,산,흔,살,동",간,FALSE,6764.899999976158,yes
6,1,18,retrieval,kr,5,4,재,낼,"삼,저,산,흔,살,동",저,FALSE,11381.200000047684,yes
6,1,18,retrieval,kr,6,3,평,평,"삼,저,산,흔,살,동",평,TRUE,3448,no
6,1,18,debrief,kr,NA,NA,NA,NA,NA,NULL,NA,NA,NA
6,1,19,memory,kr,1,0,되,NA,NA,NULL,NA,NA,NA
6,1,19,memory,kr,2,1,때,NA,NA,NULL,NA,NA,NA
6,1,19,memory,kr,3,2,압,NA,NA,NULL,NA,NA,NA
6,1,19,memory,kr,4,3,회,NA,NA,NULL,NA,NA,NA
6,1,19,memory,kr,5,4,검,NA,NA,NULL,NA,NA,NA
6,1,19,memory,kr,6,5,시,NA,NA,NULL,NA,NA,NA
6,1,19,updating,kr,1,0,되,베,NA,NULL,NA,NA,yes
6,1,19,updating,kr,2,4,검,미,NA,NULL,NA,NA,yes
6,1,19,updating,kr,3,5,시,륙,NA,NULL,NA,NA,yes
6,1,19,retrieval,kr,1,1,때,때,"늘,렵,컨,던,통,름",시,FALSE,4741,no
6,1,19,retrieval,kr,2,4,검,미,"늘,렵,컨,던,통,름",미,TRUE,5566.300000071526,yes
6,1,19,retrieval,kr,3,0,되,베,"늘,렵,컨,던,통,름",베,TRUE,5920.300000071526,yes
6,1,19,retrieval,kr,4,3,회,회,"늘,렵,컨,던,통,름",통,FALSE,4940.800000071526,no
6,1,19,retrieval,kr,5,5,시,륙,"늘,렵,컨,던,통,름",회,FALSE,3488.5,yes
6,1,19,retrieval,kr,6,2,압,압,"늘,렵,컨,던,통,름",름,FALSE,1309,no
6,1,19,debrief,kr,NA,NA,NA,NA,NA,NULL,NA,NA,NA
6,1,20,memory,kr,1,0,튜,NA,NA,NULL,NA,NA,NA
6,1,20,memory,kr,2,1,반,NA,NA,NULL,NA,NA,NA
6,1,20,memory,kr,3,2,후,NA,NA,NULL,NA,NA,NA
6,1,20,memory,kr,4,3,특,NA,NA,NULL,NA,NA,NA
6,1,20,memory,kr,5,4,배,NA,NA,NULL,NA,NA,NA
6,1,20,memory,kr,6,5,건,NA,NA,NULL,NA,NA,NA
6,1,20,updating,kr,1,1,반,패,NA,NULL,NA,NA,yes
6,1,20,updating,kr,2,4,배,식,NA,NULL,NA,NA,yes
6,1,20,updating,kr,3,5,건,찬,NA,NULL,NA,NA,yes
6,1,20,retrieval,kr,1,2,후,후,"표,억,듣,입,질,토",반,FALSE,1660.1999999284744,no
6,1,20,retrieval,kr,2,0,튜,튜,"표,억,듣,입,질,토",식,FALSE,7027.899999976158,no
6,1,20,retrieval,kr,3,4,배,식,"표,억,듣,입,질,토",찬,FALSE,2971.399999976158,yes
6,1,20,retrieval,kr,4,5,건,찬,"표,억,듣,입,질,토",토,FALSE,3513.899999976158,yes
6,1,20,retrieval,kr,5,1,반,패,"표,억,듣,입,질,토",패,TRUE,1710,yes
6,1,20,retrieval,kr,6,3,특,특,"표,억,듣,입,질,토",토,FALSE,5433.899999976158,no
6,1,20,debrief,kr,NA,NA,NA,NA,NA,NULL,NA,NA,NA
6,2,1,memory,cn,1,0,台,NA,NA,NULL,NA,NA,NA
6,2,1,memory,cn,2,1,斗,NA,NA,NULL,NA,NA,NA
6,2,1,memory,cn,3,2,阴,NA,NA,NULL,NA,NA,NA
6,2,1,memory,cn,4,3,论,NA,NA,NULL,NA,NA,NA
6,2,1,memory,cn,5,4,右,NA,NA,NULL,NA,NA,NA
6,2,1,memory,cn,6,5,百,NA,NA,NULL,NA,NA,NA
6,2,1,updating,cn,1,2,阴,兴,NA,NULL,NA,NA,yes
6,2,1,updating,cn,2,4,右,丘,NA,NULL,NA,NA,yes
6,2,1,updating,cn,3,3,论,贞,NA,NULL,NA,NA,yes
6,2,1,retrieval,cn,1,2,阴,兴,"仗,订,齐,占,压,且",齐,FALSE,10202,yes
6,2,1,retrieval,cn,2,4,右,丘,"仗,订,齐,占,压,且",丘,TRUE,7456.299999952316,yes
6,2,1,retrieval,cn,3,0,台,台,"仗,订,齐,占,压,且",台,TRUE,2404.399999976158,no
6,2,1,retrieval,cn,4,1,斗,斗,"仗,订,齐,占,压,且",斗,TRUE,2507.600000023842,no
6,2,1,retrieval,cn,5,5,百,百,"仗,订,齐,占,压,且",兴,FALSE,8336.5,no
6,2,1,retrieval,cn,6,3,论,贞,"仗,订,齐,占,压,且",右,FALSE,6617.899999976158,yes
6,2,1,debrief,cn,NA,NA,NA,NA,NA,NULL,NA,NA,NA
6,2,2,memory,cn,1,0,农,NA,NA,NULL,NA,NA,NA
6,2,2,memory,cn,2,1,写,NA,NA,NULL,NA,NA,NA
6,2,2,memory,cn,3,2,扫,NA,NA,NULL,NA,NA,NA
6,2,2,memory,cn,4,3,扣,NA,NA,NULL,NA,NA,NA
6,2,2,memory,cn,5,4,冲,NA,NA,NULL,NA,NA,NA
6,2,2,memory,cn,6,5,打,NA,NA,NULL,NA,NA,NA
6,2,2,updating,cn,1,4,冲,名,NA,NULL,NA,NA,yes
6,2,2,updating,cn,2,0,农,比,NA,NULL,NA,NA,yes
6,2,2,updating,cn,3,1,写,因,NA,NULL,NA,NA,yes
6,2,2,retrieval,cn,1,2,扫,扫,"州,再,芝,守,宁,外",扫,TRUE,2804.7000000476837,no
6,2,2,retrieval,cn,2,3,扣,扣,"州,再,芝,守,宁,外",扣,TRUE,5871.899999976158,no
6,2,2,retrieval,cn,3,4,冲,名,"州,再,芝,守,宁,外",名,TRUE,2834,yes
6,2,2,retrieval,cn,4,5,打,打,"州,再,芝,守,宁,外",扫,FALSE,7945.300000071526,no
6,2,2,retrieval,cn,5,1,写,因,"州,再,芝,守,宁,外",比,FALSE,2327.8000000715256,yes
6,2,2,retrieval,cn,6,0,农,比,"州,再,芝,守,宁,外",因,FALSE,7061.899999976158,yes
6,2,2,debrief,cn,NA,NA,NA,NA,NA,NULL,NA,NA,NA
6,2,3,memory,cn,1,0,奴,NA,NA,NULL,NA,NA,NA
6,2,3,memory,cn,2,1,乔,NA,NA,NULL,NA,NA,NA
6,2,3,memory,cn,3,2,司,NA,NA,NULL,NA,NA,NA
6,2,3,memory,cn,4,3,丙,NA,NA,NULL,NA,NA,NA
6,2,3,memory,cn,5,4,亚,NA,NA,NULL,NA,NA,NA
6,2,3,memory,cn,6,5,旦,NA,NA,NULL,NA,NA,NA
6,2,3,updating,cn,1,3,丙,匆,NA,NULL,NA,NA,yes
6,2,3,updating,cn,2,4,亚,立,NA,NULL,NA,NA,yes
6,2,3,updating,cn,3,5,旦,东,NA,NULL,NA,NA,yes
6,2,3,retrieval,cn,1,2,司,司,"对,卢,妈,不,兄,必",司,TRUE,7745,no
6,2,3,retrieval,cn,2,4,亚,立,"对,卢,妈,不,兄,必",立,TRUE,2760.899999976158,yes
6,2,3,retrieval,cn,3,0,奴,奴,"对,卢,妈,不,兄,必",奴,TRUE,2458.5,no
6,2,3,retrieval,cn,4,1,乔,乔,"对,卢,妈,不,兄,必",乔,TRUE,1117.3000000715256,no
6,2,3,retrieval,cn,5,3,丙,匆,"对,卢,妈,不,兄,必",匆,TRUE,2862.2999999523163,yes
6,2,3,retrieval,cn,6,5,旦,东,"对,卢,妈,不,兄,必",东,TRUE,3813.5999999046326,yes
6,2,3,debrief,cn,NA,NA,NA,NA,NA,NULL,NA,NA,NA
6,2,4,memory,cn,1,0,长,NA,NA,NULL,NA,NA,NA
6,2,4,memory,cn,2,1,正,NA,NA,NULL,NA,NA,NA
6,2,4,memory,cn,3,2,争,NA,NA,NULL,NA,NA,NA
6,2,4,memory,cn,4,3,如,NA,NA,NULL,NA,NA,NA
6,2,4,memory,cn,5,4,闯,NA,NA,NULL,NA,NA,NA
6,2,4,memory,cn,6,5,什,NA,NA,NULL,NA,NA,NA
6,2,4,updating,cn,1,5,什,伍,NA,NULL,NA,NA,yes
6,2,4,updating,cn,2,3,如,忙,NA,NULL,NA,NA,yes
6,2,4,updating,cn,3,4,闯,此,NA,NULL,NA,NA,yes
6,2,4,retrieval,cn,1,2,争,争,"休,氏,艾,孙,壮,异",孙,FALSE,12464.300000071526,no
6,2,4,retrieval,cn,2,4,闯,此,"休,氏,艾,孙,壮,异",此,TRUE,4058.8000000715256,yes
6,2,4,retrieval,cn,3,0,长,长,"休,氏,艾,孙,壮,异",如,FALSE,9494.300000071526,no
6,2,4,retrieval,cn,4,5,什,伍,"休,氏,艾,孙,壮,异",伍,TRUE,5091.700000047684,yes
6,2,4,retrieval,cn,5,3,如,忙,"休,氏,艾,孙,壮,异",忙,TRUE,2589.100000023842,yes
6,2,4,retrieval,cn,6,1,正,正,"休,氏,艾,孙,壮,异",闯,FALSE,6009.600000023842,no
6,2,4,debrief,cn,NA,NA,NA,NA,NA,NULL,NA,NA,NA
6,2,5,memory,cn,1,0,向,NA,NA,NULL,NA,NA,NA
6,2,5,memory,cn,2,1,册,NA,NA,NULL,NA,NA,NA
6,2,5,memory,cn,3,2,迅,NA,NA,NULL,NA,NA,NA
6,2,5,memory,cn,4,3,凶,NA,NA,NULL,NA,NA,NA
6,2,5,memory,cn,5,4,中,NA,NA,NULL,NA,NA,NA
6,2,5,memory,cn,6,5,出,NA,NA,NULL,NA,NA,NA
6,2,5,updating,cn,1,2,迅,瓦,NA,NULL,NA,NA,yes
6,2,5,updating,cn,2,5,出,丝,NA,NULL,NA,NA,yes
6,2,5,updating,cn,3,0,向,功,NA,NULL,NA,NA,yes
6,2,5,retrieval,cn,1,4,中,中,"内,戈,冰,场,毛,巴",中,TRUE,3043.399999976158,no
6,2,5,retrieval,cn,2,5,出,丝,"内,戈,冰,场,毛,巴",丝,TRUE,4289.600000023842,yes
6,2,5,retrieval,cn,3,2,迅,瓦,"内,戈,冰,场,毛,巴",瓦,TRUE,1821.8000000715256,yes
6,2,5,retrieval,cn,4,0,向,功,"内,戈,冰,场,毛,巴",凶,FALSE,1463.8999999761581,yes
6,2,5,retrieval,cn,5,1,册,册,"内,戈,冰,场,毛,巴",中,FALSE,6460.399999976158,no
6,2,5,retrieval,cn,6,3,凶,凶,"内,戈,冰,场,毛,巴",功,FALSE,6114.5,no
6,2,5,debrief,cn,NA,NA,NA,NA,NA,NULL,NA,NA,NA
6,2,6,memory,cn,1,0,韦,NA,NA,NULL,NA,NA,NA
6,2,6,memory,cn,2,1,电,NA,NA,NULL,NA,NA,NA
6,2,6,memory,cn,3,2,勾,NA,NA,NULL,NA,NA,NA
6,2,6,memory,cn,4,3,讨,NA,NA,NULL,NA,NA,NA
6,2,6,memory,cn,5,4,妄,NA,NA,NULL,NA,NA,NA
6,2,6,memory,cn,6,5,世,NA,NA,NULL,NA,NA,NA
6,2,6,updating,cn,1,1,电,午,NA,NULL,NA,NA,yes
6,2,6,updating,cn,2,0,韦,华,NA,NULL,NA,NA,yes
6,2,6,updating,cn,3,4,妄,安,NA,NULL,NA,NA,yes
6,2,6,retrieval,cn,1,5,世,世,"叮,幻,户,双,吗,朱",世,TRUE,4312.900000095367,no
6,2,6,retrieval,cn,2,0,韦,华,"叮,幻,户,双,吗,朱",华,TRUE,1417.3999999761581,yes
6,2,6,retrieval,cn,3,4,妄,安,"叮,幻,户,双,吗,朱",安,TRUE,4898.100000023842,yes
6,2,6,retrieval,cn,4,3,讨,讨,"叮,幻,户,双,吗,朱",讨,TRUE,3979.600000023842,no
6,2,6,retrieval,cn,5,2,勾,勾,"叮,幻,户,双,吗,朱",勾,TRUE,5393.700000047684,no
6,2,6,retrieval,cn,6,1,电,午,"叮,幻,户,双,吗,朱",妄,FALSE,4661.200000047684,yes
6,2,6,debrief,cn,NA,NA,NA,NA,NA,NULL,NA,NA,NA
6,2,7,memory,cn,1,0,导,NA,NA,NULL,NA,NA,NA
6,2,7,memory,cn,2,1,设,NA,NA,NULL,NA,NA,NA
6,2,7,memory,cn,3,2,专,NA,NA,NULL,NA,NA,NA
6,2,7,memory,cn,4,3,关,NA,NA,NULL,NA,NA,NA
6,2,7,memory,cn,5,4,阳,NA,NA,NULL,NA,NA,NA
6,2,7,memory,cn,6,5,艺,NA,NA,NULL,NA,NA,NA
6,2,7,updating,cn,1,0,导,污,NA,NULL,NA,NA,yes
6,2,7,updating,cn,2,3,关,分,NA,NULL,NA,NA,yes
6,2,7,updating,cn,3,1,设,旧,NA,NULL,NA,NA,yes
6,2,7,retrieval,cn,1,3,关,分,"负,历,认,耳,优,尽",分,TRUE,4564.5,yes
6,2,7,retrieval,cn,2,2,专,专,"负,历,认,耳,优,尽",专,TRUE,4227.900000095367,no
6,2,7,retrieval,cn,3,1,设,旧,"负,历,认,耳,优,尽",旧,TRUE,2797.399999976158,yes
6,2,7,retrieval,cn,4,4,阳,阳,"负,历,认,耳,优,尽",旧,FALSE,3885.100000023842,no
6,2,7,retrieval,cn,5,5,艺,艺,"负,历,认,耳,优,尽",设,FALSE,7950.199999928474,no
6,2,7,retrieval,cn,6,0,导,污,"负,历,认,耳,优,尽",污,TRUE,1553.3999999761581,yes
6,2,7,debrief,cn,NA,NA,NA,NA,NA,NULL,NA,NA,NA
6,2,8,memory,cn,1,0,半,NA,NA,NULL,NA,NA,NA
6,2,8,memory,cn,2,1,书,NA,NA,NULL,NA,NA,NA
6,2,8,memory,cn,3,2,创,NA,NA,NULL,NA,NA,NA
6,2,8,memory,cn,4,3,叹,NA,NA,NULL,NA,NA,NA
6,2,8,memory,cn,5,4,另,NA,NA,NULL,NA,NA,NA
6,2,8,memory,cn,6,5,旬,NA,NA,NULL,NA,NA,NA
6,2,8,updating,cn,1,5,旬,印,NA,NULL,NA,NA,yes
6,2,8,updating,cn,2,0,半,令,NA,NULL,NA,NA,yes
6,2,8,updating,cn,3,2,创,岂,NA,NULL,NA,NA,yes
6,2,8,retrieval,cn,1,4,另,另,"邓,甩,兰,在,伙,庄",另,TRUE,6661.199999928474,no
6,2,8,retrieval,cn,2,1,书,书,"邓,甩,兰,在,伙,庄",书,TRUE,1502.8999999761581,no
6,2,8,retrieval,cn,3,3,叹,叹,"邓,甩,兰,在,伙,庄",半,FALSE,10986.399999976158,no
6,2,8,retrieval,cn,4,5,旬,印,"邓,甩,兰,在,伙,庄",印,TRUE,1762.7000000476837,yes
6,2,8,retrieval,cn,5,2,创,岂,"邓,甩,兰,在,伙,庄",岂,TRUE,3420.100000023842,yes
6,2,8,retrieval,cn,6,0,半,令,"邓,甩,兰,在,伙,庄",令,TRUE,4918.799999952316,yes
6,2,8,debrief,cn,NA,NA,NA,NA,NA,NULL,NA,NA,NA
6,2,9,memory,cn,1,0,轨,NA,NA,NULL,NA,NA,NA
6,2,9,memory,cn,2,1,宅,NA,NA,NULL,NA,NA,NA
6,2,9,memory,cn,3,2,孔,NA,NA,NULL,NA,NA,NA
6,2,9,memory,cn,4,3,页,NA,NA,NULL,NA,NA,NA
6,2,9,memory,cn,5,4,夺,NA,NA,NULL,NA,NA,NA
6,2,9,memory,cn,6,5,伤,NA,NA,NULL,NA,NA,NA
6,2,9,updating,cn,1,3,页,市,NA,NULL,NA,NA,yes
6,2,9,updating,cn,2,4,夺,厉,NA,NULL,NA,NA,yes
6,2,9,updating,cn,3,0,轨,夸,NA,NULL,NA,NA,yes
6,2,9,retrieval,cn,1,0,轨,夸,"尼,汗,并,四,瓜,竹",夸,TRUE,2555.600000023842,yes
6,2,9,retrieval,cn,2,5,伤,伤,"尼,汗,并,四,瓜,竹",伤,TRUE,5501.100000023842,no
6,2,9,retrieval,cn,3,3,页,市,"尼,汗,并,四,瓜,竹",市,TRUE,5274.899999976158,yes
6,2,9,retrieval,cn,4,1,宅,宅,"尼,汗,并,四,瓜,竹",宅,TRUE,6811.400000095367,no
6,2,9,retrieval,cn,5,4,夺,厉,"尼,汗,并,四,瓜,竹",厉,TRUE,2257.5,yes
6,2,9,retrieval,cn,6,2,孔,孔,"尼,汗,并,四,瓜,竹",孔,TRUE,3206.6999999284744,no
6,2,9,debrief,cn,NA,NA,NA,NA,NA,NULL,NA,NA,NA
6,2,10,memory,cn,1,0,红,NA,NA,NULL,NA,NA,NA
6,2,10,memory,cn,2,1,动,NA,NA,NULL,NA,NA,NA
6,2,10,memory,cn,3,2,多,NA,NA,NULL,NA,NA,NA
6,2,10,memory,cn,4,3,曰,NA,NA,NULL,NA,NA,NA
6,2,10,memory,cn,5,4,奶,NA,NA,NULL,NA,NA,NA
6,2,10,memory,cn,6,5,片,NA,NA,NULL,NA,NA,NA
6,2,10,updating,cn,1,4,奶,纤,NA,NULL,NA,NA,yes
6,2,10,updating,cn,2,0,红,闭,NA,NULL,NA,NA,yes
6,2,10,updating,cn,3,1,动,凤,NA,NULL,NA,NA,yes
6,2,10,retrieval,cn,1,2,多,多,"肉,池,庆,仁,区,计",多,TRUE,2132.399999976158,no
6,2,10,retrieval,cn,2,4,奶,纤,"肉,池,庆,仁,区,计",纤,TRUE,3761.7000000476837,yes
6,2,10,retrieval,cn,3,3,曰,曰,"肉,池,庆,仁,区,计",曰,TRUE,1785.1999999284744,no
6,2,10,retrieval,cn,4,1,动,凤,"肉,池,庆,仁,区,计",动,FALSE,4498.700000047684,yes
6,2,10,retrieval,cn,5,5,片,片,"肉,池,庆,仁,区,计",片,TRUE,2315.100000023842,no
6,2,10,retrieval,cn,6,0,红,闭,"肉,池,庆,仁,区,计",闭,TRUE,2595.1999999284744,yes
6,2,10,debrief,cn,NA,NA,NA,NA,NA,NULL,NA,NA,NA
6,2,11,memory,cn,1,0,孕,NA,NA,NULL,NA,NA,NA
6,2,11,memory,cn,2,1,伏,NA,NA,NULL,NA,NA,NA
6,2,11,memory,cn,3,2,吕,NA,NA,NULL,NA,NA,NA
6,2,11,memory,cn,4,3,玄,NA,NA,NULL,NA,NA,NA
6,2,11,memory,cn,5,4,臣,NA,NA,NULL,NA,NA,NA
6,2,11,memory,cn,6,5,忆,NA,NA,NULL,NA,NA,NA
6,2,11,updating,cn,1,2,吕,从,NA,NULL,NA,NA,yes
6,2,11,updating,cn,2,3,玄,巩,NA,NULL,NA,NA,yes
6,2,11,updating,cn,3,0,孕,天,NA,NULL,NA,NA,yes
6,2,11,retrieval,cn,1,3,玄,巩,"众,存,汉,帅,刚,月",巩,TRUE,3562.5,yes
6,2,11,retrieval,cn,2,5,忆,忆,"众,存,汉,帅,刚,月",忆,TRUE,12458.900000095367,no
6,2,11,retrieval,cn,3,4,臣,臣,"众,存,汉,帅,刚,月",臣,TRUE,4830.899999976158,no
6,2,11,retrieval,cn,4,1,伏,伏,"众,存,汉,帅,刚,月",伏,TRUE,7691.700000047684,no
6,2,11,retrieval,cn,5,2,吕,从,"众,存,汉,帅,刚,月",从,TRUE,1543.9000000953674,yes
6,2,11,retrieval,cn,6,0,孕,天,"众,存,汉,帅,刚,月",天,TRUE,1092.3000000715256,yes
6,2,11,debrief,cn,NA,NA,NA,NA,NA,NULL,NA,NA,NA
6,2,12,memory,cn,1,0,辽,NA,NA,NULL,NA,NA,NA
6,2,12,memory,cn,2,1,邪,NA,NA,NULL,NA,NA,NA
6,2,12,memory,cn,3,2,田,NA,NA,NULL,NA,NA,NA
6,2,12,memory,cn,4,3,汤,NA,NA,NULL,NA,NA,NA
6,2,12,memory,cn,5,4,网,NA,NA,NULL,NA,NA,NA
6,2,12,memory,cn,6,5,记,NA,NA,NULL,NA,NA,NA
6,2,12,updating,cn,1,0,辽,卡,NA,NULL,NA,NA,yes
6,2,12,updating,cn,2,5,记,他,NA,NULL,NA,NA,yes
6,2,12,updating,cn,3,4,网,矛,NA,NULL,NA,NA,yes
6,2,12,retrieval,cn,1,2,田,田,"牛,会,朵,机,甲,价",田,TRUE,5009.300000071526,no
6,2,12,retrieval,cn,2,1,邪,邪,"牛,会,朵,机,甲,价",邪,TRUE,5600.5,no
6,2,12,retrieval,cn,3,3,汤,汤,"牛,会,朵,机,甲,价",汤,TRUE,2090.399999976158,no
6,2,12,retrieval,cn,4,4,网,矛,"牛,会,朵,机,甲,价",网,FALSE,4044.2999999523163,yes
6,2,12,retrieval,cn,5,0,辽,卡,"牛,会,朵,机,甲,价",他,FALSE,2934.7999999523163,yes
6,2,12,retrieval,cn,6,5,记,他,"牛,会,朵,机,甲,价",记,FALSE,3081.899999976158,yes
6,2,12,debrief,cn,NA,NA,NA,NA,NA,NULL,NA,NA,NA
6,2,13,memory,cn,1,0,公,NA,NA,NULL,NA,NA,NA
6,2,13,memory,cn,2,1,幼,NA,NA,NULL,NA,NA,NA
6,2,13,memory,cn,3,2,吊,NA,NA,NULL,NA,NA,NA
6,2,13,memory,cn,4,3,先,NA,NA,NULL,NA,NA,NA
6,2,13,memory,cn,5,4,叶,NA,NA,NULL,NA,NA,NA
6,2,13,memory,cn,6,5,们,NA,NA,NULL,NA,NA,NA
6,2,13,updating,cn,1,1,幼,平,NA,NULL,NA,NA,yes
6,2,13,updating,cn,2,3,先,当,NA,NULL,NA,NA,yes
6,2,13,updating,cn,3,4,叶,伪,NA,NULL,NA,NA,yes
6,2,13,retrieval,cn,1,1,幼,平,"吁,欠,色,至,任,术",平,TRUE,2883.399999976158,yes
6,2,13,retrieval,cn,2,2,吊,吊,"吁,欠,色,至,任,术",吊,TRUE,1432.7999999523163,no
6,2,13,retrieval,cn,3,4,叶,伪,"吁,欠,色,至,任,术",伪,TRUE,4958.200000047684,yes
6,2,13,retrieval,cn,4,5,们,们,"吁,欠,色,至,任,术",们,TRUE,2693.2999999523163,no
6,2,13,retrieval,cn,5,0,公,公,"吁,欠,色,至,任,术",公,TRUE,3191.600000023842,no
6,2,13,retrieval,cn,6,3,先,当,"吁,欠,色,至,任,术",当,TRUE,2821.5999999046326,yes
6,2,13,debrief,cn,NA,NA,NA,NA,NA,NULL,NA,NA,NA
6,2,14,memory,cn,1,0,云,NA,NA,NULL,NA,NA,NA
6,2,14,memory,cn,2,1,以,NA,NA,NULL,NA,NA,NA
6,2,14,memory,cn,3,2,仓,NA,NA,NULL,NA,NA,NA
6,2,14,memory,cn,4,3,她,NA,NA,NULL,NA,NA,NA
6,2,14,memory,cn,5,4,元,NA,NA,NULL,NA,NA,NA
6,2,14,memory,cn,6,5,训,NA,NA,NULL,NA,NA,NA
6,2,14,updating,cn,1,3,她,羊,NA,NULL,NA,NA,yes
6,2,14,updating,cn,2,5,训,边,NA,NULL,NA,NA,yes
6,2,14,updating,cn,3,0,云,观,NA,NULL,NA,NA,yes
6,2,14,retrieval,cn,1,4,元,元,"今,无,太,父,早,西",元,TRUE,4135.100000023842,no
6,2,14,retrieval,cn,2,3,她,羊,"今,无,太,父,早,西",观,FALSE,1915.5999999046326,yes
6,2,14,retrieval,cn,3,0,云,观,"今,无,太,父,早,西",观,TRUE,3403.899999976158,yes
6,2,14,retrieval,cn,4,5,训,边,"今,无,太,父,早,西",边,TRUE,3756.4000000953674,yes
6,2,14,retrieval,cn,5,2,仓,仓,"今,无,太,父,早,西",仓,TRUE,3184.100000023842,no
6,2,14,retrieval,cn,6,1,以,以,"今,无,太,父,早,西",以,TRUE,5965.100000023842,no
6,2,14,debrief,cn,NA,NA,NA,NA,NA,NULL,NA,NA,NA
6,2,15,memory,cn,1,0,考,NA,NA,NULL,NA,NA,NA
6,2,15,memory,cn,2,1,丑,NA,NA,NULL,NA,NA,NA
6,2,15,memory,cn,3,2,丛,NA,NA,NULL,NA,NA,NA
6,2,15,memory,cn,4,3,乏,NA,NA,NULL,NA,NA,NA
6,2,15,memory,cn,5,4,决,NA,NA,NULL,NA,NA,NA
6,2,15,memory,cn,6,5,后,NA,NA,NULL,NA,NA,NA
6,2,15,updating,cn,1,2,丛,灰,NA,NULL,NA,NA,yes
6,2,15,updating,cn,2,1,丑,而,NA,NULL,NA,NA,yes
6,2,15,updating,cn,3,4,决,衣,NA,NULL,NA,NA,yes
6,2,15,retrieval,cn,1,1,丑,而,"本,则,列,乎,井,扑",而,TRUE,2483.399999976158,yes
6,2,15,retrieval,cn,2,4,决,衣,"本,则,列,乎,井,扑",决,FALSE,2251,yes
6,2,15,retrieval,cn,3,3,乏,乏,"本,则,列,乎,井,扑",乏,TRUE,6351.300000071526,no
6,2,15,retrieval,cn,4,5,后,后,"本,则,列,乎,井,扑",丛,FALSE,3193.5999999046326,no
6,2,15,retrieval,cn,5,2,丛,灰,"本,则,列,乎,井,扑",灰,TRUE,1622.7000000476837,yes
6,2,15,retrieval,cn,6,0,考,考,"本,则,列,乎,井,扑",考,TRUE,2212.399999976158,no
6,2,15,debrief,cn,NA,NA,NA,NA,NA,NULL,NA,NA,NA
6,2,16,memory,cn,1,0,羽,NA,NA,NULL,NA,NA,NA
6,2,16,memory,cn,2,1,心,NA,NA,NULL,NA,NA,NA
6,2,16,memory,cn,3,2,吏,NA,NA,NULL,NA,NA,NA
6,2,16,memory,cn,4,3,灯,NA,NA,NULL,NA,NA,NA
6,2,16,memory,cn,5,4,永,NA,NA,NULL,NA,NA,NA
6,2,16,memory,cn,6,5,仔,NA,NA,NULL,NA,NA,NA
6,2,16,updating,cn,1,2,吏,巨,NA,NULL,NA,NA,yes
6,2,16,updating,cn,2,4,永,仿,NA,NULL,NA,NA,yes
6,2,16,updating,cn,3,5,仔,文,NA,NULL,NA,NA,yes
6,2,16,retrieval,cn,1,3,灯,灯,"刑,讲,爪,好,劝,朽",灯,TRUE,2372.7999999523163,no
6,2,16,retrieval,cn,2,4,永,仿,"刑,讲,爪,好,劝,朽",仿,TRUE,3831.6999999284744,yes
6,2,16,retrieval,cn,3,2,吏,巨,"刑,讲,爪,好,劝,朽",巨,TRUE,4660.899999976158,yes
6,2,16,retrieval,cn,4,0,羽,羽,"刑,讲,爪,好,劝,朽",羽,TRUE,3784,no
6,2,16,retrieval,cn,5,5,仔,文,"刑,讲,爪,好,劝,朽",文,TRUE,2844.399999976158,yes
6,2,16,retrieval,cn,6,1,心,心,"刑,讲,爪,好,劝,朽",心,TRUE,2173.7999999523163,no
6,2,16,debrief,cn,NA,NA,NA,NA,NA,NULL,NA,NA,NA
6,2,17,memory,cn,1,0,史,NA,NA,NULL,NA,NA,NA
6,2,17,memory,cn,2,1,支,NA,NA,NULL,NA,NA,NA
6,2,17,memory,cn,3,2,厅,NA,NA,NULL,NA,NA,NA
6,2,17,memory,cn,4,3,申,NA,NA,NULL,NA,NA,NA
6,2,17,memory,cn,5,4,匀,NA,NA,NULL,NA,NA,NA
6,2,17,memory,cn,6,5,央,NA,NA,NULL,NA,NA,NA
6,2,17,updating,cn,1,0,史,手,NA,NULL,NA,NA,yes
6,2,17,updating,cn,2,4,匀,约,NA,NULL,NA,NA,yes
6,2,17,updating,cn,3,5,央,止,NA,NULL,NA,NA,yes
6,2,17,retrieval,cn,1,1,支,支,"吐,叫,失,协,北,车",匀,FALSE,3118.7999999523163,no
6,2,17,retrieval,cn,2,0,史,手,"吐,叫,失,协,北,车",史,FALSE,3722.899999976158,yes
6,2,17,retrieval,cn,3,3,申,申,"吐,叫,失,协,北,车",申,TRUE,4400.899999976158,no
6,2,17,retrieval,cn,4,5,央,止,"吐,叫,失,协,北,车",央,FALSE,7435.399999976158,yes
6,2,17,retrieval,cn,5,2,厅,厅,"吐,叫,失,协,北,车",厅,TRUE,2652.9000000953674,no
6,2,17,retrieval,cn,6,4,匀,约,"吐,叫,失,协,北,车",约,TRUE,2370.1999999284744,yes
6,2,17,debrief,cn,NA,NA,NA,NA,NA,NULL,NA,NA,NA
6,2,18,memory,cn,1,0,讯,NA,NA,NULL,NA,NA,NA
6,2,18,memory,cn,2,1,可,NA,NA,NULL,NA,NA,NA
6,2,18,memory,cn,3,2,吉,NA,NA,NULL,NA,NA,NA
6,2,18,memory,cn,4,3,戏,NA,NA,NULL,NA,NA,NA
6,2,18,memory,cn,5,4,灭,NA,NA,NULL,NA,NA,NA
6,2,18,memory,cn,6,5,同,NA,NA,NULL,NA,NA,NA
6,2,18,updating,cn,1,1,可,讼,NA,NULL,NA,NA,yes
6,2,18,updating,cn,2,2,吉,那,NA,NULL,NA,NA,yes
6,2,18,updating,cn,3,4,灭,闪,NA,NULL,NA,NA,yes
6,2,18,retrieval,cn,1,4,灭,闪,"归,议,击,左,乐,切",闪,TRUE,2467.2999999523163,yes
6,2,18,retrieval,cn,2,3,戏,戏,"归,议,击,左,乐,切",击,FALSE,17883.900000095367,no
6,2,18,retrieval,cn,3,2,吉,那,"归,议,击,左,乐,切",那,TRUE,3101.2000000476837,yes
6,2,18,retrieval,cn,4,0,讯,讯,"归,议,击,左,乐,切",讯,TRUE,1933.2999999523163,no
6,2,18,retrieval,cn,5,5,同,同,"归,议,击,左,乐,切",同,TRUE,3152.600000023842,no
6,2,18,retrieval,cn,6,1,可,讼,"归,议,击,左,乐,切",讼,TRUE,2427.899999976158,yes
6,2,18,debrief,cn,NA,NA,NA,NA,NA,NULL,NA,NA,NA
6,2,19,memory,cn,1,0,布,NA,NA,NULL,NA,NA,NA
6,2,19,memory,cn,2,1,托,NA,NA,NULL,NA,NA,NA
6,2,19,memory,cn,3,2,许,NA,NA,NULL,NA,NA,NA
6,2,19,memory,cn,4,3,白,NA,NA,NULL,NA,NA,NA
6,2,19,memory,cn,5,4,化,NA,NA,NULL,NA,NA,NA
6,2,19,memory,cn,6,5,亦,NA,NA,NULL,NA,NA,NA
6,2,19,updating,cn,1,3,白,买,NA,NULL,NA,NA,yes
6,2,19,updating,cn,2,0,布,仲,NA,NULL,NA,NA,yes
6,2,19,updating,cn,3,5,亦,仪,NA,NULL,NA,NA,yes
6,2,19,retrieval,cn,1,1,托,托,"各,问,过,回,有,犯",托,TRUE,3104.8000000715256,no
6,2,19,retrieval,cn,2,3,白,买,"各,问,过,回,有,犯",买,TRUE,2828.100000023842,yes
6,2,19,retrieval,cn,3,2,许,许,"各,问,过,回,有,犯",许,TRUE,2320.7000000476837,no
6,2,19,retrieval,cn,4,4,化,化,"各,问,过,回,有,犯",化,TRUE,1418.1999999284744,no
6,2,19,retrieval,cn,5,5,亦,仪,"各,问,过,回,有,犯",仪,TRUE,1631,yes
6,2,19,retrieval,cn,6,0,布,仲,"各,问,过,回,有,犯",仲,TRUE,5154.5,yes
6,2,19,debrief,cn,NA,NA,NA,NA,NA,NULL,NA,NA,NA
6,2,20,memory,cn,1,0,古,NA,NA,NULL,NA,NA,NA
6,2,20,memory,cn,2,1,邦,NA,NA,NULL,NA,NA,NA
6,2,20,memory,cn,3,2,吸,NA,NA,NULL,NA,NA,NA
6,2,20,memory,cn,4,3,仆,NA,NA,NULL,NA,NA,NA
6,2,20,memory,cn,5,4,廷,NA,NA,NULL,NA,NA,NA
6,2,20,memory,cn,6,5,仙,NA,NA,NULL,NA,NA,NA
6,2,20,updating,cn,1,1,邦,包,NA,NULL,NA,NA,yes
6,2,20,updating,cn,2,3,仆,开,NA,NULL,NA,NA,yes
6,2,20,updating,cn,3,0,古,仅,NA,NULL,NA,NA,yes
6,2,20,retrieval,cn,1,1,邦,包,"寻,宇,全,阵,军,叭",包,TRUE,2068.7000000476837,yes
6,2,20,retrieval,cn,2,3,仆,开,"寻,宇,全,阵,军,叭",开,TRUE,2126.8000000715256,yes
6,2,20,retrieval,cn,3,4,廷,廷,"寻,宇,全,阵,军,叭",廷,TRUE,1302.0999999046326,no
6,2,20,retrieval,cn,4,0,古,仅,"寻,宇,全,阵,军,叭",仅,TRUE,2655.100000023842,yes
6,2,20,retrieval,cn,5,5,仙,仙,"寻,宇,全,阵,军,叭",仙,TRUE,2615.5999999046326,no
6,2,20,retrieval,cn,6,2,吸,吸,"寻,宇,全,阵,军,叭",吸,TRUE,4184.900000095367,no
6,2,20,debrief,cn,NA,NA,NA,NA,NA,NULL,NA,NA,NA
14,1,1,memory,kr,1,0,좋,NA,NA,NULL,NA,NA,NA
14,1,1,memory,kr,2,1,재,NA,NA,NULL,NA,NA,NA
14,1,1,memory,kr,3,2,콤,NA,NA,NULL,NA,NA,NA
14,1,1,memory,kr,4,3,료,NA,NA,NULL,NA,NA,NA
14,1,1,memory,kr,5,4,불,NA,NA,NULL,NA,NA,NA
14,1,1,memory,kr,6,5,알,NA,NA,NULL,NA,NA,NA
14,1,1,updating,kr,1,1,재,산,NA,NULL,NA,NA,yes
14,1,1,updating,kr,2,4,불,와,NA,NULL,NA,NA,yes
14,1,1,updating,kr,3,0,좋,겠,NA,NULL,NA,NA,yes
